#
# Results on Tue, 26 Apr 2022 19:20:26 GMT
# USER AGENT: Mozilla/5.0 (Windows NT 10.0; Win64; x64) AppleWebKit/537.36 (KHTML, like Gecko) Chrome/100.0.4896.127 Safari/537.36
# Design number was non-random = 0
#
# Columns below this comment are as follows:
# 1. Results reception time.
# 2. MD5 hash of participant's IP address.
# 3. Controller name.
# 4. Order number of item.
# 5. Inner element number.
# 6. Label.
# 7. Latin Square Group.
# 8. PennElementType.
# 9. PennElementName.
# 10. Parameter.
# 11. Value.
# 12. EventTime.
# 13. Comments.
1651000826,decefc1e3a8a8eedeaa45693ea8d643a,PennController,0,0,consent,NULL,PennController,0,_Trial_,Start,1651000252728,NULL
1651000826,decefc1e3a8a8eedeaa45693ea8d643a,PennController,0,0,consent,NULL,PennController,0,_Trial_,End,1651000269412,NULL
1651000826,decefc1e3a8a8eedeaa45693ea8d643a,PennController,1,0,instructions,NULL,PennController,1,_Trial_,Start,1651000269413,NULL
1651000826,decefc1e3a8a8eedeaa45693ea8d643a,PennController,1,0,instructions,NULL,PennController,1,_Trial_,End,1651000290918,NULL
# 13. condition.
# 14. itemLabel.
# 15. filename.
# 16. Comments.
1651000826,decefc1e3a8a8eedeaa45693ea8d643a,PennController,14,0,fillers,NULL,PennController,19,_Trial_,Start,1651000290920,f_rhyme,f1_f_rhyme,f1.png,NULL
1651000826,decefc1e3a8a8eedeaa45693ea8d643a,PennController,14,0,fillers,NULL,Selector,answer-alt,Selection,IT,1651000310780,f_rhyme,f1_f_rhyme,f1.png,IT;alt1;alt2
1651000826,decefc1e3a8a8eedeaa45693ea8d643a,PennController,14,0,fillers,NULL,PennController,19,_Trial_,End,1651000312912,f_rhyme,f1_f_rhyme,f1.png,NULL
1651000826,decefc1e3a8a8eedeaa45693ea8d643a,PennController,3,0,experimental-trials,NULL,PennController,8,_Trial_,Start,1651000312913,CONTROL,alcohol_control,trochaic_clean_1b.jpg,NULL
1651000826,decefc1e3a8a8eedeaa45693ea8d643a,PennController,3,0,experimental-trials,NULL,Selector,answer,Selection,No,1651000323503,CONTROL,alcohol_control,trochaic_clean_1b.jpg,Yes;No
1651000826,decefc1e3a8a8eedeaa45693ea8d643a,PennController,3,0,experimental-trials,NULL,Selector,answer-alt,Selection,alt1,1651000341836,CONTROL,alcohol_control,trochaic_clean_1b.jpg,alt2;alt1;IT
1651000826,decefc1e3a8a8eedeaa45693ea8d643a,PennController,3,0,experimental-trials,NULL,PennController,8,_Trial_,End,1651000343333,CONTROL,alcohol_control,trochaic_clean_1b.jpg,NULL
1651000826,decefc1e3a8a8eedeaa45693ea8d643a,PennController,31,0,fillers,NULL,PennController,36,_Trial_,Start,1651000343334,f_norhyme,f22_f_norhyme,f22.png,NULL
1651000826,decefc1e3a8a8eedeaa45693ea8d643a,PennController,31,0,fillers,NULL,Selector,answer-alt,Selection,IT,1651000361865,f_norhyme,f22_f_norhyme,f22.png,alt1;IT;alt2
1651000826,decefc1e3a8a8eedeaa45693ea8d643a,PennController,31,0,fillers,NULL,PennController,36,_Trial_,End,1651000363202,f_norhyme,f22_f_norhyme,f22.png,NULL
1651000826,decefc1e3a8a8eedeaa45693ea8d643a,PennController,35,0,fillers,NULL,PennController,40,_Trial_,Start,1651000363203,f_norhyme,f26_f_norhyme,f26.png,NULL
1651000826,decefc1e3a8a8eedeaa45693ea8d643a,PennController,35,0,fillers,NULL,Selector,answer-alt,Selection,alt1,1651000388835,f_norhyme,f26_f_norhyme,f26.png,alt1;alt2;IT
1651000826,decefc1e3a8a8eedeaa45693ea8d643a,PennController,35,0,fillers,NULL,PennController,40,_Trial_,End,1651000390140,f_norhyme,f26_f_norhyme,f26.png,NULL
1651000826,decefc1e3a8a8eedeaa45693ea8d643a,PennController,5,0,experimental-trials,NULL,PennController,10,_Trial_,Start,1651000390141,ALT-IT ONLY,warm_alt,none_clean_2a.jpg,NULL
1651000826,decefc1e3a8a8eedeaa45693ea8d643a,PennController,5,0,experimental-trials,NULL,Selector,answer,Selection,No,1651000400432,ALT-IT ONLY,warm_alt,none_clean_2a.jpg,Yes;No
1651000826,decefc1e3a8a8eedeaa45693ea8d643a,PennController,5,0,experimental-trials,NULL,Selector,answer-alt,Selection,IT,1651000405595,ALT-IT ONLY,warm_alt,none_clean_2a.jpg,alt2;IT;alt1
1651000826,decefc1e3a8a8eedeaa45693ea8d643a,PennController,5,0,experimental-trials,NULL,PennController,10,_Trial_,End,1651000406839,ALT-IT ONLY,warm_alt,none_clean_2a.jpg,NULL
1651000826,decefc1e3a8a8eedeaa45693ea8d643a,PennController,18,0,fillers,NULL,PennController,23,_Trial_,Start,1651000406839,f_rhyme,f5_f_rhyme,f5.png,NULL
1651000826,decefc1e3a8a8eedeaa45693ea8d643a,PennController,18,0,fillers,NULL,PennController,23,_Trial_,End,1651000415706,f_rhyme,f5_f_rhyme,f5.png,NULL
1651000826,decefc1e3a8a8eedeaa45693ea8d643a,PennController,27,0,fillers,NULL,PennController,32,_Trial_,Start,1651000415707,f_norhyme,f18_f_norhyme,f18.png,NULL
1651000826,decefc1e3a8a8eedeaa45693ea8d643a,PennController,27,0,fillers,NULL,Selector,answer-alt,Selection,IT,1651000426525,f_norhyme,f18_f_norhyme,f18.png,alt2;alt1;IT
1651000826,decefc1e3a8a8eedeaa45693ea8d643a,PennController,27,0,fillers,NULL,PennController,32,_Trial_,End,1651000427700,f_norhyme,f18_f_norhyme,f18.png,NULL
1651000826,decefc1e3a8a8eedeaa45693ea8d643a,PennController,2,0,experimental-trials,NULL,PennController,7,_Trial_,Start,1651000427700,IT ONLY,weightless_it,anapest_clean_1a.jpg,NULL
1651000826,decefc1e3a8a8eedeaa45693ea8d643a,PennController,2,0,experimental-trials,NULL,Selector,answer,Selection,No,1651000437755,IT ONLY,weightless_it,anapest_clean_1a.jpg,Yes;No
1651000826,decefc1e3a8a8eedeaa45693ea8d643a,PennController,2,0,experimental-trials,NULL,Selector,answer-alt,Selection,IT,1651000439021,IT ONLY,weightless_it,anapest_clean_1a.jpg,alt2;IT;alt1
1651000826,decefc1e3a8a8eedeaa45693ea8d643a,PennController,2,0,experimental-trials,NULL,PennController,7,_Trial_,End,1651000440095,IT ONLY,weightless_it,anapest_clean_1a.jpg,NULL
1651000826,decefc1e3a8a8eedeaa45693ea8d643a,PennController,36,0,fillers,NULL,PennController,41,_Trial_,Start,1651000440096,f_norhyme,f27_f_norhyme,f27.png,NULL
1651000826,decefc1e3a8a8eedeaa45693ea8d643a,PennController,36,0,fillers,NULL,Selector,answer-alt,Selection,alt2,1651000457737,f_norhyme,f27_f_norhyme,f27.png,IT;alt1;alt2
1651000826,decefc1e3a8a8eedeaa45693ea8d643a,PennController,36,0,fillers,NULL,PennController,41,_Trial_,End,1651000459137,f_norhyme,f27_f_norhyme,f27.png,NULL
1651000826,decefc1e3a8a8eedeaa45693ea8d643a,PennController,24,0,fillers,NULL,PennController,29,_Trial_,Start,1651000459138,f_rhyme,f11_f_rhyme,f11.png,NULL
1651000826,decefc1e3a8a8eedeaa45693ea8d643a,PennController,24,0,fillers,NULL,PennController,29,_Trial_,End,1651000467294,f_rhyme,f11_f_rhyme,f11.png,NULL
1651000826,decefc1e3a8a8eedeaa45693ea8d643a,PennController,12,0,experimental-trials,NULL,PennController,17,_Trial_,Start,1651000467294,IT%2C ALT-IT,mailed_both,iambic_clean_2b.jpg,NULL
1651000826,decefc1e3a8a8eedeaa45693ea8d643a,PennController,12,0,experimental-trials,NULL,Selector,answer,Selection,No,1651000475245,IT%2C ALT-IT,mailed_both,iambic_clean_2b.jpg,Yes;No
1651000826,decefc1e3a8a8eedeaa45693ea8d643a,PennController,12,0,experimental-trials,NULL,Selector,answer-alt,Selection,IT,1651000476217,IT%2C ALT-IT,mailed_both,iambic_clean_2b.jpg,alt2;IT;alt1
1651000826,decefc1e3a8a8eedeaa45693ea8d643a,PennController,12,0,experimental-trials,NULL,PennController,17,_Trial_,End,1651000477227,IT%2C ALT-IT,mailed_both,iambic_clean_2b.jpg,NULL
1651000826,decefc1e3a8a8eedeaa45693ea8d643a,PennController,17,0,fillers,NULL,PennController,22,_Trial_,Start,1651000477228,f_rhyme,f4_f_rhyme,f4.png,NULL
1651000826,decefc1e3a8a8eedeaa45693ea8d643a,PennController,17,0,fillers,NULL,PennController,22,_Trial_,End,1651000486518,f_rhyme,f4_f_rhyme,f4.png,NULL
1651000826,decefc1e3a8a8eedeaa45693ea8d643a,PennController,29,0,fillers,NULL,PennController,34,_Trial_,Start,1651000486518,f_norhyme,f20_f_norhyme,f20.png,NULL
1651000826,decefc1e3a8a8eedeaa45693ea8d643a,PennController,29,0,fillers,NULL,Selector,answer-alt,Selection,alt1,1651000501955,f_norhyme,f20_f_norhyme,f20.png,alt1;IT;alt2
1651000826,decefc1e3a8a8eedeaa45693ea8d643a,PennController,29,0,fillers,NULL,PennController,34,_Trial_,End,1651000503268,f_norhyme,f20_f_norhyme,f20.png,NULL
1651000826,decefc1e3a8a8eedeaa45693ea8d643a,PennController,9,0,experimental-trials,NULL,PennController,14,_Trial_,Start,1651000503269,ALT-IT ONLY,store_alt,dactyl_clean_1b.jpg,NULL
1651000826,decefc1e3a8a8eedeaa45693ea8d643a,PennController,9,0,experimental-trials,NULL,Selector,answer,Selection,No,1651000511525,ALT-IT ONLY,store_alt,dactyl_clean_1b.jpg,Yes;No
1651000826,decefc1e3a8a8eedeaa45693ea8d643a,PennController,9,0,experimental-trials,NULL,Selector,answer-alt,Selection,IT,1651000515500,ALT-IT ONLY,store_alt,dactyl_clean_1b.jpg,alt1;alt2;IT
1651000826,decefc1e3a8a8eedeaa45693ea8d643a,PennController,9,0,experimental-trials,NULL,PennController,14,_Trial_,End,1651000517714,ALT-IT ONLY,store_alt,dactyl_clean_1b.jpg,NULL
1651000826,decefc1e3a8a8eedeaa45693ea8d643a,PennController,32,0,fillers,NULL,PennController,37,_Trial_,Start,1651000517715,f_norhyme,f23_f_norhyme,f23.png,NULL
1651000826,decefc1e3a8a8eedeaa45693ea8d643a,PennController,32,0,fillers,NULL,Selector,answer-alt,Selection,IT,1651000528415,f_norhyme,f23_f_norhyme,f23.png,alt1;IT;alt2
1651000826,decefc1e3a8a8eedeaa45693ea8d643a,PennController,32,0,fillers,NULL,PennController,37,_Trial_,End,1651000529423,f_norhyme,f23_f_norhyme,f23.png,NULL
1651000826,decefc1e3a8a8eedeaa45693ea8d643a,PennController,37,0,fillers,NULL,PennController,42,_Trial_,Start,1651000529424,f_norhyme,f28_f_norhyme,f28.png,NULL
1651000826,decefc1e3a8a8eedeaa45693ea8d643a,PennController,37,0,fillers,NULL,Selector,answer-alt,Selection,IT,1651000538926,f_norhyme,f28_f_norhyme,f28.png,alt1;alt2;IT
1651000826,decefc1e3a8a8eedeaa45693ea8d643a,PennController,37,0,fillers,NULL,PennController,42,_Trial_,End,1651000540145,f_norhyme,f28_f_norhyme,f28.png,NULL
1651000826,decefc1e3a8a8eedeaa45693ea8d643a,PennController,8,0,experimental-trials,NULL,PennController,13,_Trial_,Start,1651000540145,IT%2C ALT-IT,weeds_both,iambic_clean_1a.jpg,NULL
1651000826,decefc1e3a8a8eedeaa45693ea8d643a,PennController,8,0,experimental-trials,NULL,Selector,answer,Selection,No,1651000548381,IT%2C ALT-IT,weeds_both,iambic_clean_1a.jpg,Yes;No
1651000826,decefc1e3a8a8eedeaa45693ea8d643a,PennController,8,0,experimental-trials,NULL,Selector,answer-alt,Selection,IT,1651000549666,IT%2C ALT-IT,weeds_both,iambic_clean_1a.jpg,alt1;alt2;IT
1651000826,decefc1e3a8a8eedeaa45693ea8d643a,PennController,8,0,experimental-trials,NULL,PennController,13,_Trial_,End,1651000552002,IT%2C ALT-IT,weeds_both,iambic_clean_1a.jpg,NULL
1651000826,decefc1e3a8a8eedeaa45693ea8d643a,PennController,33,0,fillers,NULL,PennController,38,_Trial_,Start,1651000552003,f_norhyme,f24_f_norhyme,f24.png,NULL
1651000826,decefc1e3a8a8eedeaa45693ea8d643a,PennController,33,0,fillers,NULL,Selector,answer-alt,Selection,IT,1651000560767,f_norhyme,f24_f_norhyme,f24.png,alt2;IT;alt1
1651000826,decefc1e3a8a8eedeaa45693ea8d643a,PennController,33,0,fillers,NULL,PennController,38,_Trial_,End,1651000561784,f_norhyme,f24_f_norhyme,f24.png,NULL
1651000826,decefc1e3a8a8eedeaa45693ea8d643a,PennController,30,0,fillers,NULL,PennController,35,_Trial_,Start,1651000561784,f_norhyme,f21_f_norhyme,f21.png,NULL
1651000826,decefc1e3a8a8eedeaa45693ea8d643a,PennController,30,0,fillers,NULL,Selector,answer-alt,Selection,IT,1651000572375,f_norhyme,f21_f_norhyme,f21.png,alt1;alt2;IT
1651000826,decefc1e3a8a8eedeaa45693ea8d643a,PennController,30,0,fillers,NULL,PennController,35,_Trial_,End,1651000574566,f_norhyme,f21_f_norhyme,f21.png,NULL
1651000826,decefc1e3a8a8eedeaa45693ea8d643a,PennController,10,0,experimental-trials,NULL,PennController,15,_Trial_,Start,1651000574566,IT ONLY,exhausted_it,trochaic_clean_3a.png,NULL
1651000826,decefc1e3a8a8eedeaa45693ea8d643a,PennController,10,0,experimental-trials,NULL,Selector,answer,Selection,No,1651000583387,IT ONLY,exhausted_it,trochaic_clean_3a.png,Yes;No
1651000826,decefc1e3a8a8eedeaa45693ea8d643a,PennController,10,0,experimental-trials,NULL,Selector,answer-alt,Selection,IT,1651000584799,IT ONLY,exhausted_it,trochaic_clean_3a.png,IT;alt1;alt2
1651000826,decefc1e3a8a8eedeaa45693ea8d643a,PennController,10,0,experimental-trials,NULL,PennController,15,_Trial_,End,1651000586033,IT ONLY,exhausted_it,trochaic_clean_3a.png,NULL
1651000826,decefc1e3a8a8eedeaa45693ea8d643a,PennController,34,0,fillers,NULL,PennController,39,_Trial_,Start,1651000586034,f_norhyme,f25_f_norhyme,f25.png,NULL
1651000826,decefc1e3a8a8eedeaa45693ea8d643a,PennController,34,0,fillers,NULL,Selector,answer-alt,Selection,IT,1651000595221,f_norhyme,f25_f_norhyme,f25.png,IT;alt2;alt1
1651000826,decefc1e3a8a8eedeaa45693ea8d643a,PennController,34,0,fillers,NULL,PennController,39,_Trial_,End,1651000596205,f_norhyme,f25_f_norhyme,f25.png,NULL
1651000826,decefc1e3a8a8eedeaa45693ea8d643a,PennController,23,0,fillers,NULL,PennController,28,_Trial_,Start,1651000596205,f_rhyme,f10_f_rhyme,f10.png,NULL
1651000826,decefc1e3a8a8eedeaa45693ea8d643a,PennController,23,0,fillers,NULL,PennController,28,_Trial_,End,1651000604733,f_rhyme,f10_f_rhyme,f10.png,NULL
1651000826,decefc1e3a8a8eedeaa45693ea8d643a,PennController,6,0,experimental-trials,NULL,PennController,11,_Trial_,Start,1651000604733,IT ONLY,adhesive_it,iambic_clean_1b.jpg,NULL
1651000826,decefc1e3a8a8eedeaa45693ea8d643a,PennController,6,0,experimental-trials,NULL,Selector,answer,Selection,No,1651000612724,IT ONLY,adhesive_it,iambic_clean_1b.jpg,Yes;No
1651000826,decefc1e3a8a8eedeaa45693ea8d643a,PennController,6,0,experimental-trials,NULL,Selector,answer-alt,Selection,IT,1651000614089,IT ONLY,adhesive_it,iambic_clean_1b.jpg,IT;alt1;alt2
1651000826,decefc1e3a8a8eedeaa45693ea8d643a,PennController,6,0,experimental-trials,NULL,PennController,11,_Trial_,End,1651000615287,IT ONLY,adhesive_it,iambic_clean_1b.jpg,NULL
1651000826,decefc1e3a8a8eedeaa45693ea8d643a,PennController,20,0,fillers,NULL,PennController,25,_Trial_,Start,1651000615288,f_rhyme,f7_f_rhyme,f7.png,NULL
1651000826,decefc1e3a8a8eedeaa45693ea8d643a,PennController,20,0,fillers,NULL,PennController,25,_Trial_,End,1651000623648,f_rhyme,f7_f_rhyme,f7.png,NULL
1651000826,decefc1e3a8a8eedeaa45693ea8d643a,PennController,16,0,fillers,NULL,PennController,21,_Trial_,Start,1651000623648,f_rhyme,f3_f_rhyme,f3.png,NULL
1651000826,decefc1e3a8a8eedeaa45693ea8d643a,PennController,16,0,fillers,NULL,PennController,21,_Trial_,End,1651000632816,f_rhyme,f3_f_rhyme,f3.png,NULL
1651000826,decefc1e3a8a8eedeaa45693ea8d643a,PennController,13,0,experimental-trials,NULL,PennController,18,_Trial_,Start,1651000632817,ALT-IT ONLY,organized_alt,dactyl_clean_2b.jpg,NULL
1651000826,decefc1e3a8a8eedeaa45693ea8d643a,PennController,13,0,experimental-trials,NULL,Selector,answer,Selection,No,1651000641039,ALT-IT ONLY,organized_alt,dactyl_clean_2b.jpg,Yes;No
1651000826,decefc1e3a8a8eedeaa45693ea8d643a,PennController,13,0,experimental-trials,NULL,Selector,answer-alt,Selection,IT,1651000645826,ALT-IT ONLY,organized_alt,dactyl_clean_2b.jpg,alt1;IT;alt2
1651000826,decefc1e3a8a8eedeaa45693ea8d643a,PennController,13,0,experimental-trials,NULL,PennController,18,_Trial_,End,1651000646813,ALT-IT ONLY,organized_alt,dactyl_clean_2b.jpg,NULL
1651000826,decefc1e3a8a8eedeaa45693ea8d643a,PennController,15,0,fillers,NULL,PennController,20,_Trial_,Start,1651000646813,f_rhyme,f2_f_rhyme,f2.png,NULL
1651000826,decefc1e3a8a8eedeaa45693ea8d643a,PennController,15,0,fillers,NULL,PennController,20,_Trial_,End,1651000654956,f_rhyme,f2_f_rhyme,f2.png,NULL
1651000826,decefc1e3a8a8eedeaa45693ea8d643a,PennController,25,0,fillers,NULL,PennController,30,_Trial_,Start,1651000654956,f_rhyme,f12_f_rhyme,f12.png,NULL
1651000826,decefc1e3a8a8eedeaa45693ea8d643a,PennController,25,0,fillers,NULL,Selector,answer-alt,Selection,IT,1651000673179,f_rhyme,f12_f_rhyme,f12.png,alt2;alt1;IT
1651000826,decefc1e3a8a8eedeaa45693ea8d643a,PennController,25,0,fillers,NULL,PennController,30,_Trial_,End,1651000674645,f_rhyme,f12_f_rhyme,f12.png,NULL
1651000826,decefc1e3a8a8eedeaa45693ea8d643a,PennController,7,0,experimental-trials,NULL,PennController,12,_Trial_,Start,1651000674645,CONTROL,seasoning_control,iambic_clean_2a.png,NULL
1651000826,decefc1e3a8a8eedeaa45693ea8d643a,PennController,7,0,experimental-trials,NULL,Selector,answer,Selection,No,1651000683050,CONTROL,seasoning_control,iambic_clean_2a.png,Yes;No
1651000826,decefc1e3a8a8eedeaa45693ea8d643a,PennController,7,0,experimental-trials,NULL,Selector,answer-alt,Selection,alt1,1651000686490,CONTROL,seasoning_control,iambic_clean_2a.png,alt2;IT;alt1
1651000826,decefc1e3a8a8eedeaa45693ea8d643a,PennController,7,0,experimental-trials,NULL,PennController,12,_Trial_,End,1651000687557,CONTROL,seasoning_control,iambic_clean_2a.png,NULL
1651000826,decefc1e3a8a8eedeaa45693ea8d643a,PennController,26,0,fillers,NULL,PennController,31,_Trial_,Start,1651000687558,f_norhyme,f17_f_norhyme,f17.png,NULL
1651000826,decefc1e3a8a8eedeaa45693ea8d643a,PennController,26,0,fillers,NULL,Selector,answer-alt,Selection,IT,1651000696872,f_norhyme,f17_f_norhyme,f17.png,alt1;IT;alt2
1651000826,decefc1e3a8a8eedeaa45693ea8d643a,PennController,26,0,fillers,NULL,PennController,31,_Trial_,End,1651000698917,f_norhyme,f17_f_norhyme,f17.png,NULL
1651000826,decefc1e3a8a8eedeaa45693ea8d643a,PennController,19,0,fillers,NULL,PennController,24,_Trial_,Start,1651000698917,f_rhyme,f6_f_rhyme,f6.png,NULL
1651000826,decefc1e3a8a8eedeaa45693ea8d643a,PennController,19,0,fillers,NULL,PennController,24,_Trial_,End,1651000707392,f_rhyme,f6_f_rhyme,f6.png,NULL
1651000826,decefc1e3a8a8eedeaa45693ea8d643a,PennController,4,0,experimental-trials,NULL,PennController,9,_Trial_,Start,1651000707393,IT%2C ALT-IT,nostril_both,anapest_clean_3a.png,NULL
1651000826,decefc1e3a8a8eedeaa45693ea8d643a,PennController,4,0,experimental-trials,NULL,Selector,answer,Selection,No,1651000715460,IT%2C ALT-IT,nostril_both,anapest_clean_3a.png,Yes;No
1651000826,decefc1e3a8a8eedeaa45693ea8d643a,PennController,4,0,experimental-trials,NULL,Selector,answer-alt,Selection,IT,1651000716396,IT%2C ALT-IT,nostril_both,anapest_clean_3a.png,IT;alt2;alt1
1651000826,decefc1e3a8a8eedeaa45693ea8d643a,PennController,4,0,experimental-trials,NULL,PennController,9,_Trial_,End,1651000717632,IT%2C ALT-IT,nostril_both,anapest_clean_3a.png,NULL
1651000826,decefc1e3a8a8eedeaa45693ea8d643a,PennController,28,0,fillers,NULL,PennController,33,_Trial_,Start,1651000717633,f_norhyme,f19_f_norhyme,f19.png,NULL
1651000826,decefc1e3a8a8eedeaa45693ea8d643a,PennController,28,0,fillers,NULL,Selector,answer-alt,Selection,IT,1651000728588,f_norhyme,f19_f_norhyme,f19.png,alt1;IT;alt2
1651000826,decefc1e3a8a8eedeaa45693ea8d643a,PennController,28,0,fillers,NULL,PennController,33,_Trial_,End,1651000729733,f_norhyme,f19_f_norhyme,f19.png,NULL
1651000826,decefc1e3a8a8eedeaa45693ea8d643a,PennController,21,0,fillers,NULL,PennController,26,_Trial_,Start,1651000729734,f_rhyme,f8_f_rhyme,f8.png,NULL
1651000826,decefc1e3a8a8eedeaa45693ea8d643a,PennController,21,0,fillers,NULL,PennController,26,_Trial_,End,1651000738019,f_rhyme,f8_f_rhyme,f8.png,NULL
1651000826,decefc1e3a8a8eedeaa45693ea8d643a,PennController,11,0,experimental-trials,NULL,PennController,16,_Trial_,Start,1651000738020,CONTROL,exam_control,dactyl_clean_1a.jpg,NULL
1651000826,decefc1e3a8a8eedeaa45693ea8d643a,PennController,11,0,experimental-trials,NULL,Selector,answer,Selection,No,1651000746254,CONTROL,exam_control,dactyl_clean_1a.jpg,Yes;No
1651000826,decefc1e3a8a8eedeaa45693ea8d643a,PennController,11,0,experimental-trials,NULL,Selector,answer-alt,Selection,alt1,1651000747953,CONTROL,exam_control,dactyl_clean_1a.jpg,alt2;alt1;IT
1651000826,decefc1e3a8a8eedeaa45693ea8d643a,PennController,11,0,experimental-trials,NULL,PennController,16,_Trial_,End,1651000749182,CONTROL,exam_control,dactyl_clean_1a.jpg,NULL
1651000826,decefc1e3a8a8eedeaa45693ea8d643a,PennController,22,0,fillers,NULL,PennController,27,_Trial_,Start,1651000749182,f_rhyme,f9_f_rhyme,f9.png,NULL
1651000826,decefc1e3a8a8eedeaa45693ea8d643a,PennController,22,0,fillers,NULL,PennController,27,_Trial_,End,1651000758938,f_rhyme,f9_f_rhyme,f9.png,NULL
# 13. Comments.
1651000826,decefc1e3a8a8eedeaa45693ea8d643a,PennController,38,0,feedback,NULL,PennController,2,_Trial_,Start,1651000758938,NULL
1651000826,decefc1e3a8a8eedeaa45693ea8d643a,PennController,38,0,feedback,NULL,TextInput,feedback,Final,Sometimes I couldn't remember what my intuition would because I forgot the lyrics after they disappeared,1651000829158,NULL
1651000826,decefc1e3a8a8eedeaa45693ea8d643a,PennController,38,0,feedback,NULL,PennController,2,_Trial_,End,1651000829158,NULL
#
# Results on Tue, 26 Apr 2022 19:24:32 GMT
# USER AGENT: Mozilla/5.0 (iPhone; CPU iPhone OS 15_4_1 like Mac OS X) AppleWebKit/605.1.15 (KHTML, like Gecko) Version/15.4 Mobile/15E148 Safari/604.1
# Design number was non-random = 0
#
# Columns below this comment are as follows:
# 1. Results reception time.
# 2. MD5 hash of participant's IP address.
# 3. Controller name.
# 4. Order number of item.
# 5. Inner element number.
# 6. Label.
# 7. Latin Square Group.
# 8. PennElementType.
# 9. PennElementName.
# 10. Parameter.
# 11. Value.
# 12. EventTime.
# 13. Comments.
1651001072,a324636b0d304529099de5d85d5a67e8,PennController,0,0,consent,NULL,PennController,0,_Trial_,Start,1651000528616,NULL
1651001072,a324636b0d304529099de5d85d5a67e8,PennController,0,0,consent,NULL,PennController,0,_Trial_,End,1651000536223,NULL
1651001072,a324636b0d304529099de5d85d5a67e8,PennController,1,0,instructions,NULL,PennController,1,_Trial_,Start,1651000536232,NULL
1651001072,a324636b0d304529099de5d85d5a67e8,PennController,1,0,instructions,NULL,PennController,1,_Trial_,End,1651000549760,NULL
# 13. condition.
# 14. itemLabel.
# 15. filename.
# 16. Comments.
1651001072,a324636b0d304529099de5d85d5a67e8,PennController,17,0,fillers,NULL,PennController,22,_Trial_,Start,1651000549767,f_rhyme,f4_f_rhyme,f4.png,NULL
1651001072,a324636b0d304529099de5d85d5a67e8,PennController,17,0,fillers,NULL,Selector,answer-alt,Selection,alt1,1651000564202,f_rhyme,f4_f_rhyme,f4.png,IT;alt2;alt1
1651001072,a324636b0d304529099de5d85d5a67e8,PennController,17,0,fillers,NULL,PennController,22,_Trial_,End,1651000566110,f_rhyme,f4_f_rhyme,f4.png,NULL
1651001072,a324636b0d304529099de5d85d5a67e8,PennController,33,0,fillers,NULL,PennController,38,_Trial_,Start,1651000566115,f_norhyme,f24_f_norhyme,f24.png,NULL
1651001072,a324636b0d304529099de5d85d5a67e8,PennController,33,0,fillers,NULL,Selector,answer-alt,Selection,IT,1651000577859,f_norhyme,f24_f_norhyme,f24.png,alt2;alt1;IT
1651001072,a324636b0d304529099de5d85d5a67e8,PennController,33,0,fillers,NULL,PennController,38,_Trial_,End,1651000579727,f_norhyme,f24_f_norhyme,f24.png,NULL
1651001072,a324636b0d304529099de5d85d5a67e8,PennController,2,0,experimental-trials,NULL,PennController,7,_Trial_,Start,1651000579732,IT ONLY,weightless_it,anapest_clean_1a.jpg,NULL
1651001072,a324636b0d304529099de5d85d5a67e8,PennController,2,0,experimental-trials,NULL,Selector,answer,Selection,No,1651000589437,IT ONLY,weightless_it,anapest_clean_1a.jpg,Yes;No
1651001072,a324636b0d304529099de5d85d5a67e8,PennController,2,0,experimental-trials,NULL,Selector,answer-alt,Selection,IT,1651000594049,IT ONLY,weightless_it,anapest_clean_1a.jpg,alt2;alt1;IT
1651001072,a324636b0d304529099de5d85d5a67e8,PennController,2,0,experimental-trials,NULL,PennController,7,_Trial_,End,1651000595984,IT ONLY,weightless_it,anapest_clean_1a.jpg,NULL
1651001072,a324636b0d304529099de5d85d5a67e8,PennController,23,0,fillers,NULL,PennController,28,_Trial_,Start,1651000595990,f_rhyme,f10_f_rhyme,f10.png,NULL
1651001072,a324636b0d304529099de5d85d5a67e8,PennController,23,0,fillers,NULL,PennController,28,_Trial_,End,1651000607314,f_rhyme,f10_f_rhyme,f10.png,NULL
1651001072,a324636b0d304529099de5d85d5a67e8,PennController,29,0,fillers,NULL,PennController,34,_Trial_,Start,1651000607318,f_norhyme,f20_f_norhyme,f20.png,NULL
1651001072,a324636b0d304529099de5d85d5a67e8,PennController,29,0,fillers,NULL,Selector,answer-alt,Selection,alt2,1651000625899,f_norhyme,f20_f_norhyme,f20.png,alt2;IT;alt1
1651001072,a324636b0d304529099de5d85d5a67e8,PennController,29,0,fillers,NULL,PennController,34,_Trial_,End,1651000628174,f_norhyme,f20_f_norhyme,f20.png,NULL
1651001072,a324636b0d304529099de5d85d5a67e8,PennController,6,0,experimental-trials,NULL,PennController,11,_Trial_,Start,1651000628178,IT ONLY,adhesive_it,iambic_clean_1b.jpg,NULL
1651001072,a324636b0d304529099de5d85d5a67e8,PennController,6,0,experimental-trials,NULL,Selector,answer,Selection,No,1651000639351,IT ONLY,adhesive_it,iambic_clean_1b.jpg,Yes;No
1651001072,a324636b0d304529099de5d85d5a67e8,PennController,6,0,experimental-trials,NULL,Selector,answer-alt,Selection,IT,1651000641904,IT ONLY,adhesive_it,iambic_clean_1b.jpg,alt1;alt2;IT
1651001072,a324636b0d304529099de5d85d5a67e8,PennController,6,0,experimental-trials,NULL,PennController,11,_Trial_,End,1651000643563,IT ONLY,adhesive_it,iambic_clean_1b.jpg,NULL
1651001072,a324636b0d304529099de5d85d5a67e8,PennController,15,0,fillers,NULL,PennController,20,_Trial_,Start,1651000643570,f_rhyme,f2_f_rhyme,f2.png,NULL
1651001072,a324636b0d304529099de5d85d5a67e8,PennController,15,0,fillers,NULL,PennController,20,_Trial_,End,1651000653286,f_rhyme,f2_f_rhyme,f2.png,NULL
1651001072,a324636b0d304529099de5d85d5a67e8,PennController,18,0,fillers,NULL,PennController,23,_Trial_,Start,1651000653289,f_rhyme,f5_f_rhyme,f5.png,NULL
1651001072,a324636b0d304529099de5d85d5a67e8,PennController,18,0,fillers,NULL,PennController,23,_Trial_,End,1651000663325,f_rhyme,f5_f_rhyme,f5.png,NULL
1651001072,a324636b0d304529099de5d85d5a67e8,PennController,13,0,experimental-trials,NULL,PennController,18,_Trial_,Start,1651000663329,ALT-IT ONLY,organized_alt,dactyl_clean_2b.jpg,NULL
1651001072,a324636b0d304529099de5d85d5a67e8,PennController,13,0,experimental-trials,NULL,Selector,answer,Selection,No,1651000671870,ALT-IT ONLY,organized_alt,dactyl_clean_2b.jpg,Yes;No
1651001072,a324636b0d304529099de5d85d5a67e8,PennController,13,0,experimental-trials,NULL,Selector,answer-alt,Selection,IT,1651000677892,ALT-IT ONLY,organized_alt,dactyl_clean_2b.jpg,IT;alt1;alt2
1651001072,a324636b0d304529099de5d85d5a67e8,PennController,13,0,experimental-trials,NULL,PennController,18,_Trial_,End,1651000679511,ALT-IT ONLY,organized_alt,dactyl_clean_2b.jpg,NULL
1651001072,a324636b0d304529099de5d85d5a67e8,PennController,28,0,fillers,NULL,PennController,33,_Trial_,Start,1651000679515,f_norhyme,f19_f_norhyme,f19.png,NULL
1651001072,a324636b0d304529099de5d85d5a67e8,PennController,28,0,fillers,NULL,Selector,answer-alt,Selection,IT,1651000690638,f_norhyme,f19_f_norhyme,f19.png,alt2;alt1;IT
1651001072,a324636b0d304529099de5d85d5a67e8,PennController,28,0,fillers,NULL,PennController,33,_Trial_,End,1651000692257,f_norhyme,f19_f_norhyme,f19.png,NULL
1651001072,a324636b0d304529099de5d85d5a67e8,PennController,14,0,fillers,NULL,PennController,19,_Trial_,Start,1651000692261,f_rhyme,f1_f_rhyme,f1.png,NULL
1651001072,a324636b0d304529099de5d85d5a67e8,PennController,14,0,fillers,NULL,Selector,answer-alt,Selection,alt1,1651000711226,f_rhyme,f1_f_rhyme,f1.png,IT;alt1;alt2
1651001072,a324636b0d304529099de5d85d5a67e8,PennController,14,0,fillers,NULL,PennController,19,_Trial_,End,1651000712654,f_rhyme,f1_f_rhyme,f1.png,NULL
1651001072,a324636b0d304529099de5d85d5a67e8,PennController,3,0,experimental-trials,NULL,PennController,8,_Trial_,Start,1651000712659,CONTROL,alcohol_control,trochaic_clean_1b.jpg,NULL
1651001072,a324636b0d304529099de5d85d5a67e8,PennController,3,0,experimental-trials,NULL,Selector,answer,Selection,No,1651000721845,CONTROL,alcohol_control,trochaic_clean_1b.jpg,Yes;No
1651001072,a324636b0d304529099de5d85d5a67e8,PennController,3,0,experimental-trials,NULL,Selector,answer-alt,Selection,alt2,1651000724417,CONTROL,alcohol_control,trochaic_clean_1b.jpg,alt2;alt1;IT
1651001072,a324636b0d304529099de5d85d5a67e8,PennController,3,0,experimental-trials,NULL,PennController,8,_Trial_,End,1651000726065,CONTROL,alcohol_control,trochaic_clean_1b.jpg,NULL
1651001072,a324636b0d304529099de5d85d5a67e8,PennController,25,0,fillers,NULL,PennController,30,_Trial_,Start,1651000726073,f_rhyme,f12_f_rhyme,f12.png,NULL
1651001072,a324636b0d304529099de5d85d5a67e8,PennController,25,0,fillers,NULL,PennController,30,_Trial_,End,1651000736372,f_rhyme,f12_f_rhyme,f12.png,NULL
1651001072,a324636b0d304529099de5d85d5a67e8,PennController,31,0,fillers,NULL,PennController,36,_Trial_,Start,1651000736376,f_norhyme,f22_f_norhyme,f22.png,NULL
1651001072,a324636b0d304529099de5d85d5a67e8,PennController,31,0,fillers,NULL,Selector,answer-alt,Selection,IT,1651000748888,f_norhyme,f22_f_norhyme,f22.png,alt2;alt1;IT
1651001072,a324636b0d304529099de5d85d5a67e8,PennController,31,0,fillers,NULL,PennController,36,_Trial_,End,1651000750572,f_norhyme,f22_f_norhyme,f22.png,NULL
1651001072,a324636b0d304529099de5d85d5a67e8,PennController,5,0,experimental-trials,NULL,PennController,10,_Trial_,Start,1651000750576,ALT-IT ONLY,warm_alt,none_clean_2a.jpg,NULL
1651001072,a324636b0d304529099de5d85d5a67e8,PennController,5,0,experimental-trials,NULL,Selector,answer,Selection,No,1651000759954,ALT-IT ONLY,warm_alt,none_clean_2a.jpg,Yes;No
1651001072,a324636b0d304529099de5d85d5a67e8,PennController,5,0,experimental-trials,NULL,Selector,answer-alt,Selection,alt1,1651000765130,ALT-IT ONLY,warm_alt,none_clean_2a.jpg,alt1;alt2;IT
1651001072,a324636b0d304529099de5d85d5a67e8,PennController,5,0,experimental-trials,NULL,PennController,10,_Trial_,End,1651000766922,ALT-IT ONLY,warm_alt,none_clean_2a.jpg,NULL
1651001072,a324636b0d304529099de5d85d5a67e8,PennController,24,0,fillers,NULL,PennController,29,_Trial_,Start,1651000766926,f_rhyme,f11_f_rhyme,f11.png,NULL
1651001072,a324636b0d304529099de5d85d5a67e8,PennController,24,0,fillers,NULL,PennController,29,_Trial_,End,1651000776391,f_rhyme,f11_f_rhyme,f11.png,NULL
1651001072,a324636b0d304529099de5d85d5a67e8,PennController,30,0,fillers,NULL,PennController,35,_Trial_,Start,1651000776394,f_norhyme,f21_f_norhyme,f21.png,NULL
1651001072,a324636b0d304529099de5d85d5a67e8,PennController,30,0,fillers,NULL,Selector,answer-alt,Selection,IT,1651000790854,f_norhyme,f21_f_norhyme,f21.png,IT;alt2;alt1
1651001072,a324636b0d304529099de5d85d5a67e8,PennController,30,0,fillers,NULL,PennController,35,_Trial_,End,1651000792331,f_norhyme,f21_f_norhyme,f21.png,NULL
1651001072,a324636b0d304529099de5d85d5a67e8,PennController,10,0,experimental-trials,NULL,PennController,15,_Trial_,Start,1651000792335,IT ONLY,exhausted_it,trochaic_clean_3a.png,NULL
1651001072,a324636b0d304529099de5d85d5a67e8,PennController,10,0,experimental-trials,NULL,Selector,answer,Selection,No,1651000800667,IT ONLY,exhausted_it,trochaic_clean_3a.png,Yes;No
1651001072,a324636b0d304529099de5d85d5a67e8,PennController,10,0,experimental-trials,NULL,Selector,answer-alt,Selection,IT,1651000802212,IT ONLY,exhausted_it,trochaic_clean_3a.png,IT;alt2;alt1
1651001072,a324636b0d304529099de5d85d5a67e8,PennController,10,0,experimental-trials,NULL,PennController,15,_Trial_,End,1651000803611,IT ONLY,exhausted_it,trochaic_clean_3a.png,NULL
1651001072,a324636b0d304529099de5d85d5a67e8,PennController,26,0,fillers,NULL,PennController,31,_Trial_,Start,1651000803615,f_norhyme,f17_f_norhyme,f17.png,NULL
1651001072,a324636b0d304529099de5d85d5a67e8,PennController,26,0,fillers,NULL,Selector,answer-alt,Selection,IT,1651000814209,f_norhyme,f17_f_norhyme,f17.png,alt1;alt2;IT
1651001072,a324636b0d304529099de5d85d5a67e8,PennController,26,0,fillers,NULL,PennController,31,_Trial_,End,1651000815701,f_norhyme,f17_f_norhyme,f17.png,NULL
1651001072,a324636b0d304529099de5d85d5a67e8,PennController,22,0,fillers,NULL,PennController,27,_Trial_,Start,1651000815706,f_rhyme,f9_f_rhyme,f9.png,NULL
1651001072,a324636b0d304529099de5d85d5a67e8,PennController,22,0,fillers,NULL,PennController,27,_Trial_,End,1651000851446,f_rhyme,f9_f_rhyme,f9.png,NULL
1651001072,a324636b0d304529099de5d85d5a67e8,PennController,8,0,experimental-trials,NULL,PennController,13,_Trial_,Start,1651000851450,IT%2C ALT-IT,weeds_both,iambic_clean_1a.jpg,NULL
1651001072,a324636b0d304529099de5d85d5a67e8,PennController,8,0,experimental-trials,NULL,Selector,answer,Selection,No,1651000864406,IT%2C ALT-IT,weeds_both,iambic_clean_1a.jpg,Yes;No
1651001072,a324636b0d304529099de5d85d5a67e8,PennController,8,0,experimental-trials,NULL,Selector,answer-alt,Selection,IT,1651000867693,IT%2C ALT-IT,weeds_both,iambic_clean_1a.jpg,IT;alt2;alt1
1651001072,a324636b0d304529099de5d85d5a67e8,PennController,8,0,experimental-trials,NULL,PennController,13,_Trial_,End,1651000869219,IT%2C ALT-IT,weeds_both,iambic_clean_1a.jpg,NULL
1651001072,a324636b0d304529099de5d85d5a67e8,PennController,34,0,fillers,NULL,PennController,39,_Trial_,Start,1651000869224,f_norhyme,f25_f_norhyme,f25.png,NULL
1651001072,a324636b0d304529099de5d85d5a67e8,PennController,34,0,fillers,NULL,Selector,answer-alt,Selection,IT,1651000892323,f_norhyme,f25_f_norhyme,f25.png,alt2;alt1;IT
1651001072,a324636b0d304529099de5d85d5a67e8,PennController,34,0,fillers,NULL,PennController,39,_Trial_,End,1651000893849,f_norhyme,f25_f_norhyme,f25.png,NULL
1651001072,a324636b0d304529099de5d85d5a67e8,PennController,20,0,fillers,NULL,PennController,25,_Trial_,Start,1651000893853,f_rhyme,f7_f_rhyme,f7.png,NULL
1651001072,a324636b0d304529099de5d85d5a67e8,PennController,20,0,fillers,NULL,Selector,answer-alt,Selection,alt2,1651000906279,f_rhyme,f7_f_rhyme,f7.png,IT;alt1;alt2
1651001072,a324636b0d304529099de5d85d5a67e8,PennController,20,0,fillers,NULL,PennController,25,_Trial_,End,1651000907707,f_rhyme,f7_f_rhyme,f7.png,NULL
1651001072,a324636b0d304529099de5d85d5a67e8,PennController,11,0,experimental-trials,NULL,PennController,16,_Trial_,Start,1651000907711,CONTROL,exam_control,dactyl_clean_1a.jpg,NULL
1651001072,a324636b0d304529099de5d85d5a67e8,PennController,11,0,experimental-trials,NULL,Selector,answer,Selection,No,1651000916212,CONTROL,exam_control,dactyl_clean_1a.jpg,Yes;No
1651001072,a324636b0d304529099de5d85d5a67e8,PennController,11,0,experimental-trials,NULL,Selector,answer-alt,Selection,IT,1651000921687,CONTROL,exam_control,dactyl_clean_1a.jpg,alt2;alt1;IT
1651001072,a324636b0d304529099de5d85d5a67e8,PennController,11,0,experimental-trials,NULL,PennController,16,_Trial_,End,1651000923426,CONTROL,exam_control,dactyl_clean_1a.jpg,NULL
1651001072,a324636b0d304529099de5d85d5a67e8,PennController,27,0,fillers,NULL,PennController,32,_Trial_,Start,1651000923429,f_norhyme,f18_f_norhyme,f18.png,NULL
1651001072,a324636b0d304529099de5d85d5a67e8,PennController,27,0,fillers,NULL,Selector,answer-alt,Selection,IT,1651000933894,f_norhyme,f18_f_norhyme,f18.png,alt1;alt2;IT
1651001072,a324636b0d304529099de5d85d5a67e8,PennController,27,0,fillers,NULL,PennController,32,_Trial_,End,1651000935366,f_norhyme,f18_f_norhyme,f18.png,NULL
1651001072,a324636b0d304529099de5d85d5a67e8,PennController,19,0,fillers,NULL,PennController,24,_Trial_,Start,1651000935370,f_rhyme,f6_f_rhyme,f6.png,NULL
1651001072,a324636b0d304529099de5d85d5a67e8,PennController,19,0,fillers,NULL,PennController,24,_Trial_,End,1651000944258,f_rhyme,f6_f_rhyme,f6.png,NULL
1651001072,a324636b0d304529099de5d85d5a67e8,PennController,4,0,experimental-trials,NULL,PennController,9,_Trial_,Start,1651000944261,IT%2C ALT-IT,nostril_both,anapest_clean_3a.png,NULL
1651001072,a324636b0d304529099de5d85d5a67e8,PennController,4,0,experimental-trials,NULL,Selector,answer,Selection,No,1651000952656,IT%2C ALT-IT,nostril_both,anapest_clean_3a.png,Yes;No
1651001072,a324636b0d304529099de5d85d5a67e8,PennController,4,0,experimental-trials,NULL,Selector,answer-alt,Selection,IT,1651000956943,IT%2C ALT-IT,nostril_both,anapest_clean_3a.png,IT;alt2;alt1
1651001072,a324636b0d304529099de5d85d5a67e8,PennController,4,0,experimental-trials,NULL,PennController,9,_Trial_,End,1651000958225,IT%2C ALT-IT,nostril_both,anapest_clean_3a.png,NULL
1651001072,a324636b0d304529099de5d85d5a67e8,PennController,16,0,fillers,NULL,PennController,21,_Trial_,Start,1651000958229,f_rhyme,f3_f_rhyme,f3.png,NULL
1651001072,a324636b0d304529099de5d85d5a67e8,PennController,16,0,fillers,NULL,PennController,21,_Trial_,End,1651000967297,f_rhyme,f3_f_rhyme,f3.png,NULL
1651001072,a324636b0d304529099de5d85d5a67e8,PennController,21,0,fillers,NULL,PennController,26,_Trial_,Start,1651000967301,f_rhyme,f8_f_rhyme,f8.png,NULL
1651001072,a324636b0d304529099de5d85d5a67e8,PennController,21,0,fillers,NULL,PennController,26,_Trial_,End,1651000976262,f_rhyme,f8_f_rhyme,f8.png,NULL
1651001072,a324636b0d304529099de5d85d5a67e8,PennController,7,0,experimental-trials,NULL,PennController,12,_Trial_,Start,1651000976265,CONTROL,seasoning_control,iambic_clean_2a.png,NULL
1651001072,a324636b0d304529099de5d85d5a67e8,PennController,7,0,experimental-trials,NULL,Selector,answer,Selection,No,1651000984584,CONTROL,seasoning_control,iambic_clean_2a.png,Yes;No
1651001072,a324636b0d304529099de5d85d5a67e8,PennController,7,0,experimental-trials,NULL,Selector,answer-alt,Selection,IT,1651000991526,CONTROL,seasoning_control,iambic_clean_2a.png,IT;alt2;alt1
1651001072,a324636b0d304529099de5d85d5a67e8,PennController,7,0,experimental-trials,NULL,PennController,12,_Trial_,End,1651000993267,CONTROL,seasoning_control,iambic_clean_2a.png,NULL
1651001072,a324636b0d304529099de5d85d5a67e8,PennController,32,0,fillers,NULL,PennController,37,_Trial_,Start,1651000993273,f_norhyme,f23_f_norhyme,f23.png,NULL
1651001072,a324636b0d304529099de5d85d5a67e8,PennController,32,0,fillers,NULL,Selector,answer-alt,Selection,IT,1651001003700,f_norhyme,f23_f_norhyme,f23.png,alt1;alt2;IT
1651001072,a324636b0d304529099de5d85d5a67e8,PennController,32,0,fillers,NULL,PennController,37,_Trial_,End,1651001005266,f_norhyme,f23_f_norhyme,f23.png,NULL
1651001072,a324636b0d304529099de5d85d5a67e8,PennController,37,0,fillers,NULL,PennController,42,_Trial_,Start,1651001005273,f_norhyme,f28_f_norhyme,f28.png,NULL
1651001072,a324636b0d304529099de5d85d5a67e8,PennController,37,0,fillers,NULL,Selector,answer-alt,Selection,IT,1651001015856,f_norhyme,f28_f_norhyme,f28.png,IT;alt2;alt1
1651001072,a324636b0d304529099de5d85d5a67e8,PennController,37,0,fillers,NULL,PennController,42,_Trial_,End,1651001017266,f_norhyme,f28_f_norhyme,f28.png,NULL
1651001072,a324636b0d304529099de5d85d5a67e8,PennController,9,0,experimental-trials,NULL,PennController,14,_Trial_,Start,1651001017271,ALT-IT ONLY,store_alt,dactyl_clean_1b.jpg,NULL
1651001072,a324636b0d304529099de5d85d5a67e8,PennController,9,0,experimental-trials,NULL,Selector,answer,Selection,No,1651001025839,ALT-IT ONLY,store_alt,dactyl_clean_1b.jpg,Yes;No
1651001072,a324636b0d304529099de5d85d5a67e8,PennController,9,0,experimental-trials,NULL,Selector,answer-alt,Selection,IT,1651001028963,ALT-IT ONLY,store_alt,dactyl_clean_1b.jpg,IT;alt2;alt1
1651001072,a324636b0d304529099de5d85d5a67e8,PennController,9,0,experimental-trials,NULL,PennController,14,_Trial_,End,1651001030373,ALT-IT ONLY,store_alt,dactyl_clean_1b.jpg,NULL
1651001072,a324636b0d304529099de5d85d5a67e8,PennController,35,0,fillers,NULL,PennController,40,_Trial_,Start,1651001030376,f_norhyme,f26_f_norhyme,f26.png,NULL
1651001072,a324636b0d304529099de5d85d5a67e8,PennController,35,0,fillers,NULL,Selector,answer-alt,Selection,alt1,1651001040937,f_norhyme,f26_f_norhyme,f26.png,IT;alt2;alt1
1651001072,a324636b0d304529099de5d85d5a67e8,PennController,35,0,fillers,NULL,PennController,40,_Trial_,End,1651001042465,f_norhyme,f26_f_norhyme,f26.png,NULL
1651001072,a324636b0d304529099de5d85d5a67e8,PennController,36,0,fillers,NULL,PennController,41,_Trial_,Start,1651001042469,f_norhyme,f27_f_norhyme,f27.png,NULL
1651001072,a324636b0d304529099de5d85d5a67e8,PennController,36,0,fillers,NULL,Selector,answer-alt,Selection,IT,1651001053171,f_norhyme,f27_f_norhyme,f27.png,alt2;IT;alt1
1651001072,a324636b0d304529099de5d85d5a67e8,PennController,36,0,fillers,NULL,PennController,41,_Trial_,End,1651001054586,f_norhyme,f27_f_norhyme,f27.png,NULL
1651001072,a324636b0d304529099de5d85d5a67e8,PennController,12,0,experimental-trials,NULL,PennController,17,_Trial_,Start,1651001054592,IT%2C ALT-IT,mailed_both,iambic_clean_2b.jpg,NULL
1651001072,a324636b0d304529099de5d85d5a67e8,PennController,12,0,experimental-trials,NULL,Selector,answer,Selection,No,1651001062930,IT%2C ALT-IT,mailed_both,iambic_clean_2b.jpg,Yes;No
1651001072,a324636b0d304529099de5d85d5a67e8,PennController,12,0,experimental-trials,NULL,Selector,answer-alt,Selection,IT,1651001064295,IT%2C ALT-IT,mailed_both,iambic_clean_2b.jpg,alt1;IT;alt2
1651001072,a324636b0d304529099de5d85d5a67e8,PennController,12,0,experimental-trials,NULL,PennController,17,_Trial_,End,1651001065744,IT%2C ALT-IT,mailed_both,iambic_clean_2b.jpg,NULL
# 13. Comments.
1651001072,a324636b0d304529099de5d85d5a67e8,PennController,38,0,feedback,NULL,PennController,2,_Trial_,Start,1651001065749,NULL
1651001072,a324636b0d304529099de5d85d5a67e8,PennController,38,0,feedback,NULL,PennController,2,_Trial_,End,1651001072383,NULL
1651001072,a324636b0d304529099de5d85d5a67e8,PennController,38,0,feedback,NULL,TextInput,feedback,Final,Leave your feedback here.,1651001072383,NULL
#
# Results on Tue, 26 Apr 2022 19:26:02 GMT
# USER AGENT: Mozilla/5.0 (Linux; Android 12; SM-G991U1) AppleWebKit/537.36 (KHTML, like Gecko) Chrome/100.0.4896.127 Mobile Safari/537.36
# Design number was non-random = 0
#
# Columns below this comment are as follows:
# 1. Results reception time.
# 2. MD5 hash of participant's IP address.
# 3. Controller name.
# 4. Order number of item.
# 5. Inner element number.
# 6. Label.
# 7. Latin Square Group.
# 8. PennElementType.
# 9. PennElementName.
# 10. Parameter.
# 11. Value.
# 12. EventTime.
# 13. Comments.
1651001162,a0e4f7ac5011c01e4c10521dfae9d3c9,PennController,0,0,consent,NULL,PennController,0,_Trial_,Start,1651000650437,NULL
1651001162,a0e4f7ac5011c01e4c10521dfae9d3c9,PennController,0,0,consent,NULL,PennController,0,_Trial_,End,1651000654083,NULL
1651001162,a0e4f7ac5011c01e4c10521dfae9d3c9,PennController,1,0,instructions,NULL,PennController,1,_Trial_,Start,1651000654087,NULL
1651001162,a0e4f7ac5011c01e4c10521dfae9d3c9,PennController,1,0,instructions,NULL,PennController,1,_Trial_,End,1651000672182,NULL
# 13. condition.
# 14. itemLabel.
# 15. filename.
# 16. Comments.
1651001162,a0e4f7ac5011c01e4c10521dfae9d3c9,PennController,23,0,fillers,NULL,PennController,28,_Trial_,Start,1651000672187,f_rhyme,f10_f_rhyme,f10.png,NULL
1651001162,a0e4f7ac5011c01e4c10521dfae9d3c9,PennController,23,0,fillers,NULL,PennController,28,_Trial_,End,1651000682907,f_rhyme,f10_f_rhyme,f10.png,NULL
1651001162,a0e4f7ac5011c01e4c10521dfae9d3c9,PennController,14,0,fillers,NULL,PennController,19,_Trial_,Start,1651000682909,f_rhyme,f1_f_rhyme,f1.png,NULL
1651001162,a0e4f7ac5011c01e4c10521dfae9d3c9,PennController,14,0,fillers,NULL,PennController,19,_Trial_,End,1651000693014,f_rhyme,f1_f_rhyme,f1.png,NULL
1651001162,a0e4f7ac5011c01e4c10521dfae9d3c9,PennController,2,0,experimental-trials,NULL,PennController,7,_Trial_,Start,1651000693017,IT ONLY,weightless_it,anapest_clean_1a.jpg,NULL
1651001162,a0e4f7ac5011c01e4c10521dfae9d3c9,PennController,2,0,experimental-trials,NULL,Selector,answer,Selection,No,1651000702253,IT ONLY,weightless_it,anapest_clean_1a.jpg,Yes;No
1651001162,a0e4f7ac5011c01e4c10521dfae9d3c9,PennController,2,0,experimental-trials,NULL,Selector,answer-alt,Selection,IT,1651000707873,IT ONLY,weightless_it,anapest_clean_1a.jpg,alt1;IT;alt2
1651001162,a0e4f7ac5011c01e4c10521dfae9d3c9,PennController,2,0,experimental-trials,NULL,PennController,7,_Trial_,End,1651000709781,IT ONLY,weightless_it,anapest_clean_1a.jpg,NULL
1651001162,a0e4f7ac5011c01e4c10521dfae9d3c9,PennController,29,0,fillers,NULL,PennController,34,_Trial_,Start,1651000709784,f_norhyme,f20_f_norhyme,f20.png,NULL
1651001162,a0e4f7ac5011c01e4c10521dfae9d3c9,PennController,29,0,fillers,NULL,Selector,answer-alt,Selection,alt2,1651000723494,f_norhyme,f20_f_norhyme,f20.png,IT;alt2;alt1
1651001162,a0e4f7ac5011c01e4c10521dfae9d3c9,PennController,29,0,fillers,NULL,PennController,34,_Trial_,End,1651000724961,f_norhyme,f20_f_norhyme,f20.png,NULL
1651001162,a0e4f7ac5011c01e4c10521dfae9d3c9,PennController,20,0,fillers,NULL,PennController,25,_Trial_,Start,1651000724966,f_rhyme,f7_f_rhyme,f7.png,NULL
1651001162,a0e4f7ac5011c01e4c10521dfae9d3c9,PennController,20,0,fillers,NULL,PennController,25,_Trial_,End,1651000734929,f_rhyme,f7_f_rhyme,f7.png,NULL
1651001162,a0e4f7ac5011c01e4c10521dfae9d3c9,PennController,13,0,experimental-trials,NULL,PennController,18,_Trial_,Start,1651000734932,ALT-IT ONLY,organized_alt,dactyl_clean_2b.jpg,NULL
1651001162,a0e4f7ac5011c01e4c10521dfae9d3c9,PennController,13,0,experimental-trials,NULL,Selector,answer,Selection,No,1651000743776,ALT-IT ONLY,organized_alt,dactyl_clean_2b.jpg,Yes;No
1651001162,a0e4f7ac5011c01e4c10521dfae9d3c9,PennController,13,0,experimental-trials,NULL,Selector,answer-alt,Selection,IT,1651000748217,ALT-IT ONLY,organized_alt,dactyl_clean_2b.jpg,alt1;alt2;IT
1651001162,a0e4f7ac5011c01e4c10521dfae9d3c9,PennController,13,0,experimental-trials,NULL,PennController,18,_Trial_,End,1651000749892,ALT-IT ONLY,organized_alt,dactyl_clean_2b.jpg,NULL
1651001162,a0e4f7ac5011c01e4c10521dfae9d3c9,PennController,36,0,fillers,NULL,PennController,41,_Trial_,Start,1651000749897,f_norhyme,f27_f_norhyme,f27.png,NULL
1651001162,a0e4f7ac5011c01e4c10521dfae9d3c9,PennController,36,0,fillers,NULL,Selector,answer-alt,Selection,IT,1651000762289,f_norhyme,f27_f_norhyme,f27.png,alt2;IT;alt1
1651001162,a0e4f7ac5011c01e4c10521dfae9d3c9,PennController,36,0,fillers,NULL,PennController,41,_Trial_,End,1651000764362,f_norhyme,f27_f_norhyme,f27.png,NULL
1651001162,a0e4f7ac5011c01e4c10521dfae9d3c9,PennController,30,0,fillers,NULL,PennController,35,_Trial_,Start,1651000764364,f_norhyme,f21_f_norhyme,f21.png,NULL
1651001162,a0e4f7ac5011c01e4c10521dfae9d3c9,PennController,30,0,fillers,NULL,Selector,answer-alt,Selection,IT,1651000787777,f_norhyme,f21_f_norhyme,f21.png,alt2;alt1;IT
1651001162,a0e4f7ac5011c01e4c10521dfae9d3c9,PennController,30,0,fillers,NULL,PennController,35,_Trial_,End,1651000789317,f_norhyme,f21_f_norhyme,f21.png,NULL
1651001162,a0e4f7ac5011c01e4c10521dfae9d3c9,PennController,8,0,experimental-trials,NULL,PennController,13,_Trial_,Start,1651000789323,IT%2C ALT-IT,weeds_both,iambic_clean_1a.jpg,NULL
1651001162,a0e4f7ac5011c01e4c10521dfae9d3c9,PennController,8,0,experimental-trials,NULL,Selector,answer,Selection,No,1651000797925,IT%2C ALT-IT,weeds_both,iambic_clean_1a.jpg,Yes;No
1651001162,a0e4f7ac5011c01e4c10521dfae9d3c9,PennController,8,0,experimental-trials,NULL,Selector,answer-alt,Selection,IT,1651000799293,IT%2C ALT-IT,weeds_both,iambic_clean_1a.jpg,IT;alt2;alt1
1651001162,a0e4f7ac5011c01e4c10521dfae9d3c9,PennController,8,0,experimental-trials,NULL,PennController,13,_Trial_,End,1651000801125,IT%2C ALT-IT,weeds_both,iambic_clean_1a.jpg,NULL
1651001162,a0e4f7ac5011c01e4c10521dfae9d3c9,PennController,28,0,fillers,NULL,PennController,33,_Trial_,Start,1651000801130,f_norhyme,f19_f_norhyme,f19.png,NULL
1651001162,a0e4f7ac5011c01e4c10521dfae9d3c9,PennController,28,0,fillers,NULL,Selector,answer-alt,Selection,IT,1651000813111,f_norhyme,f19_f_norhyme,f19.png,alt2;IT;alt1
1651001162,a0e4f7ac5011c01e4c10521dfae9d3c9,PennController,28,0,fillers,NULL,PennController,33,_Trial_,End,1651000814569,f_norhyme,f19_f_norhyme,f19.png,NULL
1651001162,a0e4f7ac5011c01e4c10521dfae9d3c9,PennController,35,0,fillers,NULL,PennController,40,_Trial_,Start,1651000814575,f_norhyme,f26_f_norhyme,f26.png,NULL
1651001162,a0e4f7ac5011c01e4c10521dfae9d3c9,PennController,35,0,fillers,NULL,Selector,answer-alt,Selection,alt1,1651000827449,f_norhyme,f26_f_norhyme,f26.png,alt1;alt2;IT
1651001162,a0e4f7ac5011c01e4c10521dfae9d3c9,PennController,35,0,fillers,NULL,PennController,40,_Trial_,End,1651000829183,f_norhyme,f26_f_norhyme,f26.png,NULL
1651001162,a0e4f7ac5011c01e4c10521dfae9d3c9,PennController,7,0,experimental-trials,NULL,PennController,12,_Trial_,Start,1651000829188,CONTROL,seasoning_control,iambic_clean_2a.png,NULL
1651001162,a0e4f7ac5011c01e4c10521dfae9d3c9,PennController,7,0,experimental-trials,NULL,PennController,12,_Trial_,End,1651000837830,CONTROL,seasoning_control,iambic_clean_2a.png,NULL
1651001162,a0e4f7ac5011c01e4c10521dfae9d3c9,PennController,26,0,fillers,NULL,PennController,31,_Trial_,Start,1651000837831,f_norhyme,f17_f_norhyme,f17.png,NULL
1651001162,a0e4f7ac5011c01e4c10521dfae9d3c9,PennController,26,0,fillers,NULL,PennController,31,_Trial_,End,1651000846642,f_norhyme,f17_f_norhyme,f17.png,NULL
1651001162,a0e4f7ac5011c01e4c10521dfae9d3c9,PennController,18,0,fillers,NULL,PennController,23,_Trial_,Start,1651000846645,f_rhyme,f5_f_rhyme,f5.png,NULL
1651001162,a0e4f7ac5011c01e4c10521dfae9d3c9,PennController,18,0,fillers,NULL,Selector,answer-alt,Selection,alt2,1651000864391,f_rhyme,f5_f_rhyme,f5.png,IT;alt1;alt2
1651001162,a0e4f7ac5011c01e4c10521dfae9d3c9,PennController,18,0,fillers,NULL,PennController,23,_Trial_,End,1651000866041,f_rhyme,f5_f_rhyme,f5.png,NULL
1651001162,a0e4f7ac5011c01e4c10521dfae9d3c9,PennController,6,0,experimental-trials,NULL,PennController,11,_Trial_,Start,1651000866047,IT ONLY,adhesive_it,iambic_clean_1b.jpg,NULL
1651001162,a0e4f7ac5011c01e4c10521dfae9d3c9,PennController,6,0,experimental-trials,NULL,Selector,answer,Selection,No,1651000874949,IT ONLY,adhesive_it,iambic_clean_1b.jpg,Yes;No
1651001162,a0e4f7ac5011c01e4c10521dfae9d3c9,PennController,6,0,experimental-trials,NULL,Selector,answer-alt,Selection,IT,1651000877354,IT ONLY,adhesive_it,iambic_clean_1b.jpg,IT;alt2;alt1
1651001162,a0e4f7ac5011c01e4c10521dfae9d3c9,PennController,6,0,experimental-trials,NULL,PennController,11,_Trial_,End,1651000878903,IT ONLY,adhesive_it,iambic_clean_1b.jpg,NULL
1651001162,a0e4f7ac5011c01e4c10521dfae9d3c9,PennController,37,0,fillers,NULL,PennController,42,_Trial_,Start,1651000878907,f_norhyme,f28_f_norhyme,f28.png,NULL
1651001162,a0e4f7ac5011c01e4c10521dfae9d3c9,PennController,37,0,fillers,NULL,PennController,42,_Trial_,End,1651000887848,f_norhyme,f28_f_norhyme,f28.png,NULL
1651001162,a0e4f7ac5011c01e4c10521dfae9d3c9,PennController,25,0,fillers,NULL,PennController,30,_Trial_,Start,1651000887851,f_rhyme,f12_f_rhyme,f12.png,NULL
1651001162,a0e4f7ac5011c01e4c10521dfae9d3c9,PennController,25,0,fillers,NULL,PennController,30,_Trial_,End,1651000897071,f_rhyme,f12_f_rhyme,f12.png,NULL
1651001162,a0e4f7ac5011c01e4c10521dfae9d3c9,PennController,4,0,experimental-trials,NULL,PennController,9,_Trial_,Start,1651000897074,IT%2C ALT-IT,nostril_both,anapest_clean_3a.png,NULL
1651001162,a0e4f7ac5011c01e4c10521dfae9d3c9,PennController,4,0,experimental-trials,NULL,Selector,answer,Selection,No,1651000906105,IT%2C ALT-IT,nostril_both,anapest_clean_3a.png,Yes;No
1651001162,a0e4f7ac5011c01e4c10521dfae9d3c9,PennController,4,0,experimental-trials,NULL,Selector,answer-alt,Selection,IT,1651000908260,IT%2C ALT-IT,nostril_both,anapest_clean_3a.png,alt1;IT;alt2
1651001162,a0e4f7ac5011c01e4c10521dfae9d3c9,PennController,4,0,experimental-trials,NULL,PennController,9,_Trial_,End,1651000909709,IT%2C ALT-IT,nostril_both,anapest_clean_3a.png,NULL
1651001162,a0e4f7ac5011c01e4c10521dfae9d3c9,PennController,32,0,fillers,NULL,PennController,37,_Trial_,Start,1651000909712,f_norhyme,f23_f_norhyme,f23.png,NULL
1651001162,a0e4f7ac5011c01e4c10521dfae9d3c9,PennController,32,0,fillers,NULL,PennController,37,_Trial_,End,1651000918748,f_norhyme,f23_f_norhyme,f23.png,NULL
1651001162,a0e4f7ac5011c01e4c10521dfae9d3c9,PennController,24,0,fillers,NULL,PennController,29,_Trial_,Start,1651000918751,f_rhyme,f11_f_rhyme,f11.png,NULL
1651001162,a0e4f7ac5011c01e4c10521dfae9d3c9,PennController,24,0,fillers,NULL,Selector,answer-alt,Selection,IT,1651000931148,f_rhyme,f11_f_rhyme,f11.png,IT;alt2;alt1
1651001162,a0e4f7ac5011c01e4c10521dfae9d3c9,PennController,24,0,fillers,NULL,PennController,29,_Trial_,End,1651000932796,f_rhyme,f11_f_rhyme,f11.png,NULL
1651001162,a0e4f7ac5011c01e4c10521dfae9d3c9,PennController,10,0,experimental-trials,NULL,PennController,15,_Trial_,Start,1651000932800,IT ONLY,exhausted_it,trochaic_clean_3a.png,NULL
1651001162,a0e4f7ac5011c01e4c10521dfae9d3c9,PennController,10,0,experimental-trials,NULL,Selector,answer,Selection,No,1651000941869,IT ONLY,exhausted_it,trochaic_clean_3a.png,Yes;No
1651001162,a0e4f7ac5011c01e4c10521dfae9d3c9,PennController,10,0,experimental-trials,NULL,Selector,answer-alt,Selection,IT,1651000943389,IT ONLY,exhausted_it,trochaic_clean_3a.png,alt1;IT;alt2
1651001162,a0e4f7ac5011c01e4c10521dfae9d3c9,PennController,10,0,experimental-trials,NULL,PennController,15,_Trial_,End,1651000944906,IT ONLY,exhausted_it,trochaic_clean_3a.png,NULL
1651001162,a0e4f7ac5011c01e4c10521dfae9d3c9,PennController,16,0,fillers,NULL,PennController,21,_Trial_,Start,1651000944910,f_rhyme,f3_f_rhyme,f3.png,NULL
1651001162,a0e4f7ac5011c01e4c10521dfae9d3c9,PennController,16,0,fillers,NULL,PennController,21,_Trial_,End,1651000953793,f_rhyme,f3_f_rhyme,f3.png,NULL
1651001162,a0e4f7ac5011c01e4c10521dfae9d3c9,PennController,34,0,fillers,NULL,PennController,39,_Trial_,Start,1651000953797,f_norhyme,f25_f_norhyme,f25.png,NULL
1651001162,a0e4f7ac5011c01e4c10521dfae9d3c9,PennController,34,0,fillers,NULL,Selector,answer-alt,Selection,IT,1651000963416,f_norhyme,f25_f_norhyme,f25.png,alt1;IT;alt2
1651001162,a0e4f7ac5011c01e4c10521dfae9d3c9,PennController,34,0,fillers,NULL,PennController,39,_Trial_,End,1651000964910,f_norhyme,f25_f_norhyme,f25.png,NULL
1651001162,a0e4f7ac5011c01e4c10521dfae9d3c9,PennController,5,0,experimental-trials,NULL,PennController,10,_Trial_,Start,1651000964915,ALT-IT ONLY,warm_alt,none_clean_2a.jpg,NULL
1651001162,a0e4f7ac5011c01e4c10521dfae9d3c9,PennController,5,0,experimental-trials,NULL,Selector,answer,Selection,No,1651000973521,ALT-IT ONLY,warm_alt,none_clean_2a.jpg,Yes;No
1651001162,a0e4f7ac5011c01e4c10521dfae9d3c9,PennController,5,0,experimental-trials,NULL,Selector,answer-alt,Selection,IT,1651000977542,ALT-IT ONLY,warm_alt,none_clean_2a.jpg,alt2;IT;alt1
1651001162,a0e4f7ac5011c01e4c10521dfae9d3c9,PennController,5,0,experimental-trials,NULL,PennController,10,_Trial_,End,1651000979687,ALT-IT ONLY,warm_alt,none_clean_2a.jpg,NULL
1651001162,a0e4f7ac5011c01e4c10521dfae9d3c9,PennController,33,0,fillers,NULL,PennController,38,_Trial_,Start,1651000979692,f_norhyme,f24_f_norhyme,f24.png,NULL
1651001162,a0e4f7ac5011c01e4c10521dfae9d3c9,PennController,33,0,fillers,NULL,Selector,answer-alt,Selection,IT,1651000990323,f_norhyme,f24_f_norhyme,f24.png,alt2;IT;alt1
1651001162,a0e4f7ac5011c01e4c10521dfae9d3c9,PennController,33,0,fillers,NULL,PennController,38,_Trial_,End,1651000991822,f_norhyme,f24_f_norhyme,f24.png,NULL
1651001162,a0e4f7ac5011c01e4c10521dfae9d3c9,PennController,17,0,fillers,NULL,PennController,22,_Trial_,Start,1651000991826,f_rhyme,f4_f_rhyme,f4.png,NULL
1651001162,a0e4f7ac5011c01e4c10521dfae9d3c9,PennController,17,0,fillers,NULL,Selector,answer-alt,Selection,alt2,1651001011868,f_rhyme,f4_f_rhyme,f4.png,IT;alt1;alt2
1651001162,a0e4f7ac5011c01e4c10521dfae9d3c9,PennController,17,0,fillers,NULL,PennController,22,_Trial_,End,1651001013330,f_rhyme,f4_f_rhyme,f4.png,NULL
1651001162,a0e4f7ac5011c01e4c10521dfae9d3c9,PennController,11,0,experimental-trials,NULL,PennController,16,_Trial_,Start,1651001013334,CONTROL,exam_control,dactyl_clean_1a.jpg,NULL
1651001162,a0e4f7ac5011c01e4c10521dfae9d3c9,PennController,11,0,experimental-trials,NULL,Selector,answer,Selection,No,1651001021915,CONTROL,exam_control,dactyl_clean_1a.jpg,Yes;No
1651001162,a0e4f7ac5011c01e4c10521dfae9d3c9,PennController,11,0,experimental-trials,NULL,Selector,answer-alt,Selection,alt1,1651001023946,CONTROL,exam_control,dactyl_clean_1a.jpg,alt2;IT;alt1
1651001162,a0e4f7ac5011c01e4c10521dfae9d3c9,PennController,11,0,experimental-trials,NULL,PennController,16,_Trial_,End,1651001025451,CONTROL,exam_control,dactyl_clean_1a.jpg,NULL
1651001162,a0e4f7ac5011c01e4c10521dfae9d3c9,PennController,27,0,fillers,NULL,PennController,32,_Trial_,Start,1651001025455,f_norhyme,f18_f_norhyme,f18.png,NULL
1651001162,a0e4f7ac5011c01e4c10521dfae9d3c9,PennController,27,0,fillers,NULL,Selector,answer-alt,Selection,IT,1651001037976,f_norhyme,f18_f_norhyme,f18.png,alt2;IT;alt1
1651001162,a0e4f7ac5011c01e4c10521dfae9d3c9,PennController,27,0,fillers,NULL,PennController,32,_Trial_,End,1651001039827,f_norhyme,f18_f_norhyme,f18.png,NULL
1651001162,a0e4f7ac5011c01e4c10521dfae9d3c9,PennController,15,0,fillers,NULL,PennController,20,_Trial_,Start,1651001039831,f_rhyme,f2_f_rhyme,f2.png,NULL
1651001162,a0e4f7ac5011c01e4c10521dfae9d3c9,PennController,15,0,fillers,NULL,PennController,20,_Trial_,End,1651001048578,f_rhyme,f2_f_rhyme,f2.png,NULL
1651001162,a0e4f7ac5011c01e4c10521dfae9d3c9,PennController,9,0,experimental-trials,NULL,PennController,14,_Trial_,Start,1651001048580,ALT-IT ONLY,store_alt,dactyl_clean_1b.jpg,NULL
1651001162,a0e4f7ac5011c01e4c10521dfae9d3c9,PennController,9,0,experimental-trials,NULL,Selector,answer,Selection,No,1651001057164,ALT-IT ONLY,store_alt,dactyl_clean_1b.jpg,Yes;No
1651001162,a0e4f7ac5011c01e4c10521dfae9d3c9,PennController,9,0,experimental-trials,NULL,Selector,answer-alt,Selection,alt2,1651001065838,ALT-IT ONLY,store_alt,dactyl_clean_1b.jpg,alt2;IT;alt1
1651001162,a0e4f7ac5011c01e4c10521dfae9d3c9,PennController,9,0,experimental-trials,NULL,PennController,14,_Trial_,End,1651001067553,ALT-IT ONLY,store_alt,dactyl_clean_1b.jpg,NULL
1651001162,a0e4f7ac5011c01e4c10521dfae9d3c9,PennController,31,0,fillers,NULL,PennController,36,_Trial_,Start,1651001067559,f_norhyme,f22_f_norhyme,f22.png,NULL
1651001162,a0e4f7ac5011c01e4c10521dfae9d3c9,PennController,31,0,fillers,NULL,Selector,answer-alt,Selection,IT,1651001077515,f_norhyme,f22_f_norhyme,f22.png,alt2;IT;alt1
1651001162,a0e4f7ac5011c01e4c10521dfae9d3c9,PennController,31,0,fillers,NULL,PennController,36,_Trial_,End,1651001078986,f_norhyme,f22_f_norhyme,f22.png,NULL
1651001162,a0e4f7ac5011c01e4c10521dfae9d3c9,PennController,21,0,fillers,NULL,PennController,26,_Trial_,Start,1651001078991,f_rhyme,f8_f_rhyme,f8.png,NULL
1651001162,a0e4f7ac5011c01e4c10521dfae9d3c9,PennController,21,0,fillers,NULL,PennController,26,_Trial_,End,1651001090269,f_rhyme,f8_f_rhyme,f8.png,NULL
1651001162,a0e4f7ac5011c01e4c10521dfae9d3c9,PennController,3,0,experimental-trials,NULL,PennController,8,_Trial_,Start,1651001090271,CONTROL,alcohol_control,trochaic_clean_1b.jpg,NULL
1651001162,a0e4f7ac5011c01e4c10521dfae9d3c9,PennController,3,0,experimental-trials,NULL,Selector,answer,Selection,No,1651001098801,CONTROL,alcohol_control,trochaic_clean_1b.jpg,Yes;No
1651001162,a0e4f7ac5011c01e4c10521dfae9d3c9,PennController,3,0,experimental-trials,NULL,Selector,answer-alt,Selection,IT,1651001110894,CONTROL,alcohol_control,trochaic_clean_1b.jpg,alt1;IT;alt2
1651001162,a0e4f7ac5011c01e4c10521dfae9d3c9,PennController,3,0,experimental-trials,NULL,PennController,8,_Trial_,End,1651001113844,CONTROL,alcohol_control,trochaic_clean_1b.jpg,NULL
1651001162,a0e4f7ac5011c01e4c10521dfae9d3c9,PennController,19,0,fillers,NULL,PennController,24,_Trial_,Start,1651001113848,f_rhyme,f6_f_rhyme,f6.png,NULL
1651001162,a0e4f7ac5011c01e4c10521dfae9d3c9,PennController,19,0,fillers,NULL,PennController,24,_Trial_,End,1651001122564,f_rhyme,f6_f_rhyme,f6.png,NULL
1651001162,a0e4f7ac5011c01e4c10521dfae9d3c9,PennController,22,0,fillers,NULL,PennController,27,_Trial_,Start,1651001122567,f_rhyme,f9_f_rhyme,f9.png,NULL
1651001162,a0e4f7ac5011c01e4c10521dfae9d3c9,PennController,22,0,fillers,NULL,PennController,27,_Trial_,End,1651001131631,f_rhyme,f9_f_rhyme,f9.png,NULL
1651001162,a0e4f7ac5011c01e4c10521dfae9d3c9,PennController,12,0,experimental-trials,NULL,PennController,17,_Trial_,Start,1651001131632,IT%2C ALT-IT,mailed_both,iambic_clean_2b.jpg,NULL
1651001162,a0e4f7ac5011c01e4c10521dfae9d3c9,PennController,12,0,experimental-trials,NULL,Selector,answer,Selection,No,1651001139835,IT%2C ALT-IT,mailed_both,iambic_clean_2b.jpg,Yes;No
1651001162,a0e4f7ac5011c01e4c10521dfae9d3c9,PennController,12,0,experimental-trials,NULL,Selector,answer-alt,Selection,IT,1651001140860,IT%2C ALT-IT,mailed_both,iambic_clean_2b.jpg,alt1;IT;alt2
1651001162,a0e4f7ac5011c01e4c10521dfae9d3c9,PennController,12,0,experimental-trials,NULL,PennController,17,_Trial_,End,1651001142311,IT%2C ALT-IT,mailed_both,iambic_clean_2b.jpg,NULL
# 13. Comments.
1651001162,a0e4f7ac5011c01e4c10521dfae9d3c9,PennController,38,0,feedback,NULL,PennController,2,_Trial_,Start,1651001142316,NULL
1651001162,a0e4f7ac5011c01e4c10521dfae9d3c9,PennController,38,0,feedback,NULL,TextInput,feedback,Final,Slightly more time to read the lyrics would have been helpful,1651001163958,NULL
1651001162,a0e4f7ac5011c01e4c10521dfae9d3c9,PennController,38,0,feedback,NULL,PennController,2,_Trial_,End,1651001163959,NULL
#
# Results on Tue, 26 Apr 2022 19:31:28 GMT
# USER AGENT: Mozilla/5.0 (Macintosh; Intel Mac OS X 10_15_7) AppleWebKit/537.36 (KHTML, like Gecko) Chrome/100.0.4896.127 Safari/537.36
# Design number was non-random = 1
#
# Columns below this comment are as follows:
# 1. Results reception time.
# 2. MD5 hash of participant's IP address.
# 3. Controller name.
# 4. Order number of item.
# 5. Inner element number.
# 6. Label.
# 7. Latin Square Group.
# 8. PennElementType.
# 9. PennElementName.
# 10. Parameter.
# 11. Value.
# 12. EventTime.
# 13. Comments.
1651001488,f67d7fee8be0ac4885ad8590ad784f0d,PennController,0,0,consent,NULL,PennController,0,_Trial_,Start,1651000866345,NULL
1651001488,f67d7fee8be0ac4885ad8590ad784f0d,PennController,0,0,consent,NULL,PennController,0,_Trial_,End,1651000873918,NULL
1651001488,f67d7fee8be0ac4885ad8590ad784f0d,PennController,1,0,instructions,NULL,PennController,1,_Trial_,Start,1651000873922,NULL
1651001488,f67d7fee8be0ac4885ad8590ad784f0d,PennController,1,0,instructions,NULL,PennController,1,_Trial_,End,1651001027022,NULL
# 13. condition.
# 14. itemLabel.
# 15. filename.
# 16. Comments.
1651001488,f67d7fee8be0ac4885ad8590ad784f0d,PennController,37,0,fillers,NULL,PennController,42,_Trial_,Start,1651001027027,f_norhyme,f28_f_norhyme,f28.png,NULL
1651001488,f67d7fee8be0ac4885ad8590ad784f0d,PennController,37,0,fillers,NULL,PennController,42,_Trial_,End,1651001038028,f_norhyme,f28_f_norhyme,f28.png,NULL
1651001488,f67d7fee8be0ac4885ad8590ad784f0d,PennController,29,0,fillers,NULL,PennController,34,_Trial_,Start,1651001038029,f_norhyme,f20_f_norhyme,f20.png,NULL
1651001488,f67d7fee8be0ac4885ad8590ad784f0d,PennController,29,0,fillers,NULL,PennController,34,_Trial_,End,1651001049976,f_norhyme,f20_f_norhyme,f20.png,NULL
1651001488,f67d7fee8be0ac4885ad8590ad784f0d,PennController,3,0,experimental-trials,NULL,PennController,8,_Trial_,Start,1651001049977,IT ONLY,alcohol_it,trochaic_clean_1b.jpg,NULL
1651001488,f67d7fee8be0ac4885ad8590ad784f0d,PennController,3,0,experimental-trials,NULL,Selector,answer,Selection,No,1651001059870,IT ONLY,alcohol_it,trochaic_clean_1b.jpg,Yes;No
1651001488,f67d7fee8be0ac4885ad8590ad784f0d,PennController,3,0,experimental-trials,NULL,Selector,answer-alt,Selection,IT,1651001064092,IT ONLY,alcohol_it,trochaic_clean_1b.jpg,alt2;alt1;IT
1651001488,f67d7fee8be0ac4885ad8590ad784f0d,PennController,3,0,experimental-trials,NULL,PennController,8,_Trial_,End,1651001066219,IT ONLY,alcohol_it,trochaic_clean_1b.jpg,NULL
1651001488,f67d7fee8be0ac4885ad8590ad784f0d,PennController,19,0,fillers,NULL,PennController,24,_Trial_,Start,1651001066221,f_rhyme,f6_f_rhyme,f6.png,NULL
1651001488,f67d7fee8be0ac4885ad8590ad784f0d,PennController,19,0,fillers,NULL,PennController,24,_Trial_,End,1651001075733,f_rhyme,f6_f_rhyme,f6.png,NULL
1651001488,f67d7fee8be0ac4885ad8590ad784f0d,PennController,23,0,fillers,NULL,PennController,28,_Trial_,Start,1651001075735,f_rhyme,f10_f_rhyme,f10.png,NULL
1651001488,f67d7fee8be0ac4885ad8590ad784f0d,PennController,23,0,fillers,NULL,PennController,28,_Trial_,End,1651001084110,f_rhyme,f10_f_rhyme,f10.png,NULL
1651001488,f67d7fee8be0ac4885ad8590ad784f0d,PennController,12,0,experimental-trials,NULL,PennController,17,_Trial_,Start,1651001084111,CONTROL,mailed_control,iambic_clean_2b.jpg,NULL
1651001488,f67d7fee8be0ac4885ad8590ad784f0d,PennController,12,0,experimental-trials,NULL,Selector,answer,Selection,No,1651001092595,CONTROL,mailed_control,iambic_clean_2b.jpg,Yes;No
1651001488,f67d7fee8be0ac4885ad8590ad784f0d,PennController,12,0,experimental-trials,NULL,Selector,answer-alt,Selection,IT,1651001105231,CONTROL,mailed_control,iambic_clean_2b.jpg,IT;alt2;alt1
1651001488,f67d7fee8be0ac4885ad8590ad784f0d,PennController,12,0,experimental-trials,NULL,PennController,17,_Trial_,End,1651001107271,CONTROL,mailed_control,iambic_clean_2b.jpg,NULL
1651001488,f67d7fee8be0ac4885ad8590ad784f0d,PennController,17,0,fillers,NULL,PennController,22,_Trial_,Start,1651001107273,f_rhyme,f4_f_rhyme,f4.png,NULL
1651001488,f67d7fee8be0ac4885ad8590ad784f0d,PennController,17,0,fillers,NULL,PennController,22,_Trial_,End,1651001115753,f_rhyme,f4_f_rhyme,f4.png,NULL
1651001488,f67d7fee8be0ac4885ad8590ad784f0d,PennController,24,0,fillers,NULL,PennController,29,_Trial_,Start,1651001115755,f_rhyme,f11_f_rhyme,f11.png,NULL
1651001488,f67d7fee8be0ac4885ad8590ad784f0d,PennController,24,0,fillers,NULL,PennController,29,_Trial_,End,1651001123974,f_rhyme,f11_f_rhyme,f11.png,NULL
1651001488,f67d7fee8be0ac4885ad8590ad784f0d,PennController,4,0,experimental-trials,NULL,PennController,9,_Trial_,Start,1651001123976,CONTROL,nostril_control,anapest_clean_3a.png,NULL
1651001488,f67d7fee8be0ac4885ad8590ad784f0d,PennController,4,0,experimental-trials,NULL,Selector,answer,Selection,No,1651001132431,CONTROL,nostril_control,anapest_clean_3a.png,Yes;No
1651001488,f67d7fee8be0ac4885ad8590ad784f0d,PennController,4,0,experimental-trials,NULL,Selector,answer-alt,Selection,alt1,1651001136427,CONTROL,nostril_control,anapest_clean_3a.png,alt1;IT;alt2
1651001488,f67d7fee8be0ac4885ad8590ad784f0d,PennController,4,0,experimental-trials,NULL,PennController,9,_Trial_,End,1651001138369,CONTROL,nostril_control,anapest_clean_3a.png,NULL
1651001488,f67d7fee8be0ac4885ad8590ad784f0d,PennController,27,0,fillers,NULL,PennController,32,_Trial_,Start,1651001138370,f_norhyme,f18_f_norhyme,f18.png,NULL
1651001488,f67d7fee8be0ac4885ad8590ad784f0d,PennController,27,0,fillers,NULL,Selector,answer-alt,Selection,IT,1651001150791,f_norhyme,f18_f_norhyme,f18.png,alt2;alt1;IT
1651001488,f67d7fee8be0ac4885ad8590ad784f0d,PennController,27,0,fillers,NULL,PennController,32,_Trial_,End,1651001152123,f_norhyme,f18_f_norhyme,f18.png,NULL
1651001488,f67d7fee8be0ac4885ad8590ad784f0d,PennController,20,0,fillers,NULL,PennController,25,_Trial_,Start,1651001152125,f_rhyme,f7_f_rhyme,f7.png,NULL
1651001488,f67d7fee8be0ac4885ad8590ad784f0d,PennController,20,0,fillers,NULL,Selector,answer-alt,Selection,alt1,1651001163002,f_rhyme,f7_f_rhyme,f7.png,IT;alt1;alt2
1651001488,f67d7fee8be0ac4885ad8590ad784f0d,PennController,20,0,fillers,NULL,PennController,25,_Trial_,End,1651001164429,f_rhyme,f7_f_rhyme,f7.png,NULL
1651001488,f67d7fee8be0ac4885ad8590ad784f0d,PennController,2,0,experimental-trials,NULL,PennController,7,_Trial_,Start,1651001164431,ALT-IT ONLY,weightless_alt,anapest_clean_1a.jpg,NULL
1651001488,f67d7fee8be0ac4885ad8590ad784f0d,PennController,2,0,experimental-trials,NULL,Selector,answer,Selection,No,1651001173270,ALT-IT ONLY,weightless_alt,anapest_clean_1a.jpg,Yes;No
1651001488,f67d7fee8be0ac4885ad8590ad784f0d,PennController,2,0,experimental-trials,NULL,Selector,answer-alt,Selection,alt1,1651001176003,ALT-IT ONLY,weightless_alt,anapest_clean_1a.jpg,IT;alt1;alt2
1651001488,f67d7fee8be0ac4885ad8590ad784f0d,PennController,2,0,experimental-trials,NULL,PennController,7,_Trial_,End,1651001177172,ALT-IT ONLY,weightless_alt,anapest_clean_1a.jpg,NULL
1651001488,f67d7fee8be0ac4885ad8590ad784f0d,PennController,32,0,fillers,NULL,PennController,37,_Trial_,Start,1651001177175,f_norhyme,f23_f_norhyme,f23.png,NULL
1651001488,f67d7fee8be0ac4885ad8590ad784f0d,PennController,32,0,fillers,NULL,PennController,37,_Trial_,End,1651001185434,f_norhyme,f23_f_norhyme,f23.png,NULL
1651001488,f67d7fee8be0ac4885ad8590ad784f0d,PennController,30,0,fillers,NULL,PennController,35,_Trial_,Start,1651001185435,f_norhyme,f21_f_norhyme,f21.png,NULL
1651001488,f67d7fee8be0ac4885ad8590ad784f0d,PennController,30,0,fillers,NULL,Selector,answer-alt,Selection,alt1,1651001196702,f_norhyme,f21_f_norhyme,f21.png,IT;alt1;alt2
1651001488,f67d7fee8be0ac4885ad8590ad784f0d,PennController,30,0,fillers,NULL,PennController,35,_Trial_,End,1651001198005,f_norhyme,f21_f_norhyme,f21.png,NULL
1651001488,f67d7fee8be0ac4885ad8590ad784f0d,PennController,11,0,experimental-trials,NULL,PennController,16,_Trial_,Start,1651001198006,IT ONLY,exam_it,dactyl_clean_1a.jpg,NULL
1651001488,f67d7fee8be0ac4885ad8590ad784f0d,PennController,11,0,experimental-trials,NULL,Selector,answer,Selection,No,1651001206292,IT ONLY,exam_it,dactyl_clean_1a.jpg,Yes;No
1651001488,f67d7fee8be0ac4885ad8590ad784f0d,PennController,11,0,experimental-trials,NULL,Selector,answer-alt,Selection,IT,1651001207626,IT ONLY,exam_it,dactyl_clean_1a.jpg,alt1;alt2;IT
1651001488,f67d7fee8be0ac4885ad8590ad784f0d,PennController,11,0,experimental-trials,NULL,PennController,16,_Trial_,End,1651001208773,IT ONLY,exam_it,dactyl_clean_1a.jpg,NULL
1651001488,f67d7fee8be0ac4885ad8590ad784f0d,PennController,26,0,fillers,NULL,PennController,31,_Trial_,Start,1651001208775,f_norhyme,f17_f_norhyme,f17.png,NULL
1651001488,f67d7fee8be0ac4885ad8590ad784f0d,PennController,26,0,fillers,NULL,Selector,answer-alt,Selection,IT,1651001220511,f_norhyme,f17_f_norhyme,f17.png,alt1;alt2;IT
1651001488,f67d7fee8be0ac4885ad8590ad784f0d,PennController,26,0,fillers,NULL,PennController,31,_Trial_,End,1651001221739,f_norhyme,f17_f_norhyme,f17.png,NULL
1651001488,f67d7fee8be0ac4885ad8590ad784f0d,PennController,21,0,fillers,NULL,PennController,26,_Trial_,Start,1651001221741,f_rhyme,f8_f_rhyme,f8.png,NULL
1651001488,f67d7fee8be0ac4885ad8590ad784f0d,PennController,21,0,fillers,NULL,PennController,26,_Trial_,End,1651001230518,f_rhyme,f8_f_rhyme,f8.png,NULL
1651001488,f67d7fee8be0ac4885ad8590ad784f0d,PennController,7,0,experimental-trials,NULL,PennController,12,_Trial_,Start,1651001230519,IT ONLY,seasoning_it,iambic_clean_2a.png,NULL
1651001488,f67d7fee8be0ac4885ad8590ad784f0d,PennController,7,0,experimental-trials,NULL,Selector,answer,Selection,No,1651001239043,IT ONLY,seasoning_it,iambic_clean_2a.png,Yes;No
1651001488,f67d7fee8be0ac4885ad8590ad784f0d,PennController,7,0,experimental-trials,NULL,Selector,answer-alt,Selection,IT,1651001240650,IT ONLY,seasoning_it,iambic_clean_2a.png,IT;alt2;alt1
1651001488,f67d7fee8be0ac4885ad8590ad784f0d,PennController,7,0,experimental-trials,NULL,PennController,12,_Trial_,End,1651001241829,IT ONLY,seasoning_it,iambic_clean_2a.png,NULL
1651001488,f67d7fee8be0ac4885ad8590ad784f0d,PennController,14,0,fillers,NULL,PennController,19,_Trial_,Start,1651001241832,f_rhyme,f1_f_rhyme,f1.png,NULL
1651001488,f67d7fee8be0ac4885ad8590ad784f0d,PennController,14,0,fillers,NULL,PennController,19,_Trial_,End,1651001250586,f_rhyme,f1_f_rhyme,f1.png,NULL
1651001488,f67d7fee8be0ac4885ad8590ad784f0d,PennController,36,0,fillers,NULL,PennController,41,_Trial_,Start,1651001250587,f_norhyme,f27_f_norhyme,f27.png,NULL
1651001488,f67d7fee8be0ac4885ad8590ad784f0d,PennController,36,0,fillers,NULL,Selector,answer-alt,Selection,IT,1651001261265,f_norhyme,f27_f_norhyme,f27.png,alt1;alt2;IT
1651001488,f67d7fee8be0ac4885ad8590ad784f0d,PennController,36,0,fillers,NULL,PennController,41,_Trial_,End,1651001262642,f_norhyme,f27_f_norhyme,f27.png,NULL
1651001488,f67d7fee8be0ac4885ad8590ad784f0d,PennController,5,0,experimental-trials,NULL,PennController,10,_Trial_,Start,1651001262643,IT%2C ALT-IT,warm_both,none_clean_2a.jpg,NULL
1651001488,f67d7fee8be0ac4885ad8590ad784f0d,PennController,5,0,experimental-trials,NULL,Selector,answer,Selection,No,1651001270620,IT%2C ALT-IT,warm_both,none_clean_2a.jpg,Yes;No
1651001488,f67d7fee8be0ac4885ad8590ad784f0d,PennController,5,0,experimental-trials,NULL,Selector,answer-alt,Selection,IT,1651001271873,IT%2C ALT-IT,warm_both,none_clean_2a.jpg,IT;alt2;alt1
1651001488,f67d7fee8be0ac4885ad8590ad784f0d,PennController,5,0,experimental-trials,NULL,PennController,10,_Trial_,End,1651001273011,IT%2C ALT-IT,warm_both,none_clean_2a.jpg,NULL
1651001488,f67d7fee8be0ac4885ad8590ad784f0d,PennController,16,0,fillers,NULL,PennController,21,_Trial_,Start,1651001273013,f_rhyme,f3_f_rhyme,f3.png,NULL
1651001488,f67d7fee8be0ac4885ad8590ad784f0d,PennController,16,0,fillers,NULL,PennController,21,_Trial_,End,1651001281642,f_rhyme,f3_f_rhyme,f3.png,NULL
1651001488,f67d7fee8be0ac4885ad8590ad784f0d,PennController,34,0,fillers,NULL,PennController,39,_Trial_,Start,1651001281643,f_norhyme,f25_f_norhyme,f25.png,NULL
1651001488,f67d7fee8be0ac4885ad8590ad784f0d,PennController,34,0,fillers,NULL,Selector,answer-alt,Selection,IT,1651001293634,f_norhyme,f25_f_norhyme,f25.png,alt1;IT;alt2
1651001488,f67d7fee8be0ac4885ad8590ad784f0d,PennController,34,0,fillers,NULL,PennController,39,_Trial_,End,1651001294747,f_norhyme,f25_f_norhyme,f25.png,NULL
1651001488,f67d7fee8be0ac4885ad8590ad784f0d,PennController,13,0,experimental-trials,NULL,PennController,18,_Trial_,Start,1651001294752,IT%2C ALT-IT,organized_both,dactyl_clean_2b.jpg,NULL
1651001488,f67d7fee8be0ac4885ad8590ad784f0d,PennController,13,0,experimental-trials,NULL,Selector,answer,Selection,No,1651001302977,IT%2C ALT-IT,organized_both,dactyl_clean_2b.jpg,Yes;No
1651001488,f67d7fee8be0ac4885ad8590ad784f0d,PennController,13,0,experimental-trials,NULL,Selector,answer-alt,Selection,IT,1651001304110,IT%2C ALT-IT,organized_both,dactyl_clean_2b.jpg,alt2;IT;alt1
1651001488,f67d7fee8be0ac4885ad8590ad784f0d,PennController,13,0,experimental-trials,NULL,PennController,18,_Trial_,End,1651001305180,IT%2C ALT-IT,organized_both,dactyl_clean_2b.jpg,NULL
1651001488,f67d7fee8be0ac4885ad8590ad784f0d,PennController,28,0,fillers,NULL,PennController,33,_Trial_,Start,1651001305182,f_norhyme,f19_f_norhyme,f19.png,NULL
1651001488,f67d7fee8be0ac4885ad8590ad784f0d,PennController,28,0,fillers,NULL,Selector,answer-alt,Selection,IT,1651001314606,f_norhyme,f19_f_norhyme,f19.png,alt2;alt1;IT
1651001488,f67d7fee8be0ac4885ad8590ad784f0d,PennController,28,0,fillers,NULL,PennController,33,_Trial_,End,1651001315789,f_norhyme,f19_f_norhyme,f19.png,NULL
1651001488,f67d7fee8be0ac4885ad8590ad784f0d,PennController,31,0,fillers,NULL,PennController,36,_Trial_,Start,1651001315790,f_norhyme,f22_f_norhyme,f22.png,NULL
1651001488,f67d7fee8be0ac4885ad8590ad784f0d,PennController,31,0,fillers,NULL,Selector,answer-alt,Selection,IT,1651001325853,f_norhyme,f22_f_norhyme,f22.png,alt2;IT;alt1
1651001488,f67d7fee8be0ac4885ad8590ad784f0d,PennController,31,0,fillers,NULL,PennController,36,_Trial_,End,1651001326937,f_norhyme,f22_f_norhyme,f22.png,NULL
1651001488,f67d7fee8be0ac4885ad8590ad784f0d,PennController,9,0,experimental-trials,NULL,PennController,14,_Trial_,Start,1651001326938,IT%2C ALT-IT,store_both,dactyl_clean_1b.jpg,NULL
1651001488,f67d7fee8be0ac4885ad8590ad784f0d,PennController,9,0,experimental-trials,NULL,Selector,answer,Selection,No,1651001334848,IT%2C ALT-IT,store_both,dactyl_clean_1b.jpg,Yes;No
1651001488,f67d7fee8be0ac4885ad8590ad784f0d,PennController,9,0,experimental-trials,NULL,Selector,answer-alt,Selection,IT,1651001336110,IT%2C ALT-IT,store_both,dactyl_clean_1b.jpg,IT;alt1;alt2
1651001488,f67d7fee8be0ac4885ad8590ad784f0d,PennController,9,0,experimental-trials,NULL,PennController,14,_Trial_,End,1651001337285,IT%2C ALT-IT,store_both,dactyl_clean_1b.jpg,NULL
1651001488,f67d7fee8be0ac4885ad8590ad784f0d,PennController,18,0,fillers,NULL,PennController,23,_Trial_,Start,1651001337286,f_rhyme,f5_f_rhyme,f5.png,NULL
1651001488,f67d7fee8be0ac4885ad8590ad784f0d,PennController,18,0,fillers,NULL,PennController,23,_Trial_,End,1651001346147,f_rhyme,f5_f_rhyme,f5.png,NULL
1651001488,f67d7fee8be0ac4885ad8590ad784f0d,PennController,33,0,fillers,NULL,PennController,38,_Trial_,Start,1651001346149,f_norhyme,f24_f_norhyme,f24.png,NULL
1651001488,f67d7fee8be0ac4885ad8590ad784f0d,PennController,33,0,fillers,NULL,Selector,answer-alt,Selection,IT,1651001357077,f_norhyme,f24_f_norhyme,f24.png,alt2;IT;alt1
1651001488,f67d7fee8be0ac4885ad8590ad784f0d,PennController,33,0,fillers,NULL,PennController,38,_Trial_,End,1651001358627,f_norhyme,f24_f_norhyme,f24.png,NULL
1651001488,f67d7fee8be0ac4885ad8590ad784f0d,PennController,10,0,experimental-trials,NULL,PennController,15,_Trial_,Start,1651001358629,ALT-IT ONLY,exhausted_alt,trochaic_clean_3a.png,NULL
1651001488,f67d7fee8be0ac4885ad8590ad784f0d,PennController,10,0,experimental-trials,NULL,Selector,answer,Selection,No,1651001366835,ALT-IT ONLY,exhausted_alt,trochaic_clean_3a.png,Yes;No
1651001488,f67d7fee8be0ac4885ad8590ad784f0d,PennController,10,0,experimental-trials,NULL,Selector,answer-alt,Selection,alt1,1651001372607,ALT-IT ONLY,exhausted_alt,trochaic_clean_3a.png,alt2;alt1;IT
1651001488,f67d7fee8be0ac4885ad8590ad784f0d,PennController,10,0,experimental-trials,NULL,PennController,15,_Trial_,End,1651001375482,ALT-IT ONLY,exhausted_alt,trochaic_clean_3a.png,NULL
1651001488,f67d7fee8be0ac4885ad8590ad784f0d,PennController,22,0,fillers,NULL,PennController,27,_Trial_,Start,1651001375484,f_rhyme,f9_f_rhyme,f9.png,NULL
1651001488,f67d7fee8be0ac4885ad8590ad784f0d,PennController,22,0,fillers,NULL,PennController,27,_Trial_,End,1651001385016,f_rhyme,f9_f_rhyme,f9.png,NULL
1651001488,f67d7fee8be0ac4885ad8590ad784f0d,PennController,15,0,fillers,NULL,PennController,20,_Trial_,Start,1651001385018,f_rhyme,f2_f_rhyme,f2.png,NULL
1651001488,f67d7fee8be0ac4885ad8590ad784f0d,PennController,15,0,fillers,NULL,PennController,20,_Trial_,End,1651001393313,f_rhyme,f2_f_rhyme,f2.png,NULL
1651001488,f67d7fee8be0ac4885ad8590ad784f0d,PennController,8,0,experimental-trials,NULL,PennController,13,_Trial_,Start,1651001393314,CONTROL,weeds_control,iambic_clean_1a.jpg,NULL
1651001488,f67d7fee8be0ac4885ad8590ad784f0d,PennController,8,0,experimental-trials,NULL,Selector,answer,Selection,No,1651001401289,CONTROL,weeds_control,iambic_clean_1a.jpg,Yes;No
1651001488,f67d7fee8be0ac4885ad8590ad784f0d,PennController,8,0,experimental-trials,NULL,Selector,answer-alt,Selection,IT,1651001404240,CONTROL,weeds_control,iambic_clean_1a.jpg,alt2;IT;alt1
1651001488,f67d7fee8be0ac4885ad8590ad784f0d,PennController,8,0,experimental-trials,NULL,PennController,13,_Trial_,End,1651001405517,CONTROL,weeds_control,iambic_clean_1a.jpg,NULL
1651001488,f67d7fee8be0ac4885ad8590ad784f0d,PennController,35,0,fillers,NULL,PennController,40,_Trial_,Start,1651001405519,f_norhyme,f26_f_norhyme,f26.png,NULL
1651001488,f67d7fee8be0ac4885ad8590ad784f0d,PennController,35,0,fillers,NULL,Selector,answer-alt,Selection,IT,1651001415568,f_norhyme,f26_f_norhyme,f26.png,alt1;alt2;IT
1651001488,f67d7fee8be0ac4885ad8590ad784f0d,PennController,35,0,fillers,NULL,PennController,40,_Trial_,End,1651001416796,f_norhyme,f26_f_norhyme,f26.png,NULL
1651001488,f67d7fee8be0ac4885ad8590ad784f0d,PennController,25,0,fillers,NULL,PennController,30,_Trial_,Start,1651001416798,f_rhyme,f12_f_rhyme,f12.png,NULL
1651001488,f67d7fee8be0ac4885ad8590ad784f0d,PennController,25,0,fillers,NULL,PennController,30,_Trial_,End,1651001426749,f_rhyme,f12_f_rhyme,f12.png,NULL
1651001488,f67d7fee8be0ac4885ad8590ad784f0d,PennController,6,0,experimental-trials,NULL,PennController,11,_Trial_,Start,1651001426751,ALT-IT ONLY,adhesive_alt,iambic_clean_1b.jpg,NULL
1651001488,f67d7fee8be0ac4885ad8590ad784f0d,PennController,6,0,experimental-trials,NULL,Selector,answer,Selection,No,1651001435014,ALT-IT ONLY,adhesive_alt,iambic_clean_1b.jpg,Yes;No
1651001488,f67d7fee8be0ac4885ad8590ad784f0d,PennController,6,0,experimental-trials,NULL,Selector,answer-alt,Selection,alt1,1651001442160,ALT-IT ONLY,adhesive_alt,iambic_clean_1b.jpg,alt1;IT;alt2
1651001488,f67d7fee8be0ac4885ad8590ad784f0d,PennController,6,0,experimental-trials,NULL,PennController,11,_Trial_,End,1651001443826,ALT-IT ONLY,adhesive_alt,iambic_clean_1b.jpg,NULL
# 13. Comments.
1651001488,f67d7fee8be0ac4885ad8590ad784f0d,PennController,38,0,feedback,NULL,PennController,2,_Trial_,Start,1651001443829,NULL
1651001488,f67d7fee8be0ac4885ad8590ad784f0d,PennController,38,0,feedback,NULL,TextInput,feedback,Final,Next time inform people to not do this while listening to music - it would throw user off. I did not do this%2C but was going to.%0A%0AAlso I <3 u John,1651001487597,NULL
1651001488,f67d7fee8be0ac4885ad8590ad784f0d,PennController,38,0,feedback,NULL,PennController,2,_Trial_,End,1651001487598,NULL
#
# Results on Tue, 26 Apr 2022 20:01:55 GMT
# USER AGENT: Mozilla/5.0 (Macintosh; Intel Mac OS X 10_15_7) AppleWebKit/537.36 (KHTML, like Gecko) Chrome/99.0.4844.84 Safari/537.36
# Design number was non-random = 4
#
# Columns below this comment are as follows:
# 1. Results reception time.
# 2. MD5 hash of participant's IP address.
# 3. Controller name.
# 4. Order number of item.
# 5. Inner element number.
# 6. Label.
# 7. Latin Square Group.
# 8. PennElementType.
# 9. PennElementName.
# 10. Parameter.
# 11. Value.
# 12. EventTime.
# 13. Comments.
1651003315,1a5ed2728eefe44a100abebf0c9a90bc,PennController,0,0,consent,NULL,PennController,0,_Trial_,Start,1651002870453,NULL
1651003315,1a5ed2728eefe44a100abebf0c9a90bc,PennController,0,0,consent,NULL,PennController,0,_Trial_,End,1651002875111,NULL
1651003315,1a5ed2728eefe44a100abebf0c9a90bc,PennController,1,0,instructions,NULL,PennController,1,_Trial_,Start,1651002875114,NULL
1651003315,1a5ed2728eefe44a100abebf0c9a90bc,PennController,1,0,instructions,NULL,PennController,1,_Trial_,End,1651002888087,NULL
# 13. condition.
# 14. itemLabel.
# 15. filename.
# 16. Comments.
1651003315,1a5ed2728eefe44a100abebf0c9a90bc,PennController,35,0,fillers,NULL,PennController,40,_Trial_,Start,1651002888092,f_norhyme,f26_f_norhyme,f26.png,NULL
1651003315,1a5ed2728eefe44a100abebf0c9a90bc,PennController,35,0,fillers,NULL,Selector,answer-alt,Selection,alt1,1651002900768,f_norhyme,f26_f_norhyme,f26.png,alt2;alt1;IT
1651003315,1a5ed2728eefe44a100abebf0c9a90bc,PennController,35,0,fillers,NULL,PennController,40,_Trial_,End,1651002902382,f_norhyme,f26_f_norhyme,f26.png,NULL
1651003315,1a5ed2728eefe44a100abebf0c9a90bc,PennController,7,0,experimental-trials,NULL,PennController,12,_Trial_,Start,1651002902384,CONTROL,seasoning_control,iambic_clean_2a.png,NULL
1651003315,1a5ed2728eefe44a100abebf0c9a90bc,PennController,7,0,experimental-trials,NULL,Selector,answer,Selection,No,1651002910939,CONTROL,seasoning_control,iambic_clean_2a.png,Yes;No
1651003315,1a5ed2728eefe44a100abebf0c9a90bc,PennController,7,0,experimental-trials,NULL,Selector,answer-alt,Selection,alt1,1651002914888,CONTROL,seasoning_control,iambic_clean_2a.png,alt2;alt1;IT
1651003315,1a5ed2728eefe44a100abebf0c9a90bc,PennController,7,0,experimental-trials,NULL,PennController,12,_Trial_,End,1651002916888,CONTROL,seasoning_control,iambic_clean_2a.png,NULL
1651003315,1a5ed2728eefe44a100abebf0c9a90bc,PennController,32,0,fillers,NULL,PennController,37,_Trial_,Start,1651002916890,f_norhyme,f23_f_norhyme,f23.png,NULL
1651003315,1a5ed2728eefe44a100abebf0c9a90bc,PennController,32,0,fillers,NULL,Selector,answer-alt,Selection,IT,1651002927530,f_norhyme,f23_f_norhyme,f23.png,alt1;alt2;IT
1651003315,1a5ed2728eefe44a100abebf0c9a90bc,PennController,32,0,fillers,NULL,PennController,37,_Trial_,End,1651002928944,f_norhyme,f23_f_norhyme,f23.png,NULL
1651003315,1a5ed2728eefe44a100abebf0c9a90bc,PennController,34,0,fillers,NULL,PennController,39,_Trial_,Start,1651002928947,f_norhyme,f25_f_norhyme,f25.png,NULL
1651003315,1a5ed2728eefe44a100abebf0c9a90bc,PennController,34,0,fillers,NULL,Selector,answer-alt,Selection,IT,1651002939068,f_norhyme,f25_f_norhyme,f25.png,alt1;alt2;IT
1651003315,1a5ed2728eefe44a100abebf0c9a90bc,PennController,34,0,fillers,NULL,PennController,39,_Trial_,End,1651002940592,f_norhyme,f25_f_norhyme,f25.png,NULL
1651003315,1a5ed2728eefe44a100abebf0c9a90bc,PennController,9,0,experimental-trials,NULL,PennController,14,_Trial_,Start,1651002940595,ALT-IT ONLY,store_alt,dactyl_clean_1b.jpg,NULL
1651003315,1a5ed2728eefe44a100abebf0c9a90bc,PennController,9,0,experimental-trials,NULL,Selector,answer,Selection,No,1651002949204,ALT-IT ONLY,store_alt,dactyl_clean_1b.jpg,Yes;No
1651003315,1a5ed2728eefe44a100abebf0c9a90bc,PennController,9,0,experimental-trials,NULL,Selector,answer-alt,Selection,IT,1651002953277,ALT-IT ONLY,store_alt,dactyl_clean_1b.jpg,alt1;alt2;IT
1651003315,1a5ed2728eefe44a100abebf0c9a90bc,PennController,9,0,experimental-trials,NULL,PennController,14,_Trial_,End,1651002954799,ALT-IT ONLY,store_alt,dactyl_clean_1b.jpg,NULL
1651003315,1a5ed2728eefe44a100abebf0c9a90bc,PennController,37,0,fillers,NULL,PennController,42,_Trial_,Start,1651002954802,f_norhyme,f28_f_norhyme,f28.png,NULL
1651003315,1a5ed2728eefe44a100abebf0c9a90bc,PennController,37,0,fillers,NULL,Selector,answer-alt,Selection,IT,1651002968454,f_norhyme,f28_f_norhyme,f28.png,alt2;alt1;IT
1651003315,1a5ed2728eefe44a100abebf0c9a90bc,PennController,37,0,fillers,NULL,PennController,42,_Trial_,End,1651002969972,f_norhyme,f28_f_norhyme,f28.png,NULL
1651003315,1a5ed2728eefe44a100abebf0c9a90bc,PennController,25,0,fillers,NULL,PennController,30,_Trial_,Start,1651002969975,f_rhyme,f12_f_rhyme,f12.png,NULL
1651003315,1a5ed2728eefe44a100abebf0c9a90bc,PennController,25,0,fillers,NULL,PennController,30,_Trial_,End,1651002978526,f_rhyme,f12_f_rhyme,f12.png,NULL
1651003315,1a5ed2728eefe44a100abebf0c9a90bc,PennController,13,0,experimental-trials,NULL,PennController,18,_Trial_,Start,1651002978528,ALT-IT ONLY,organized_alt,dactyl_clean_2b.jpg,NULL
1651003315,1a5ed2728eefe44a100abebf0c9a90bc,PennController,13,0,experimental-trials,NULL,Selector,answer,Selection,No,1651002986966,ALT-IT ONLY,organized_alt,dactyl_clean_2b.jpg,Yes;No
1651003315,1a5ed2728eefe44a100abebf0c9a90bc,PennController,13,0,experimental-trials,NULL,Selector,answer-alt,Selection,IT,1651002989525,ALT-IT ONLY,organized_alt,dactyl_clean_2b.jpg,alt1;IT;alt2
1651003315,1a5ed2728eefe44a100abebf0c9a90bc,PennController,13,0,experimental-trials,NULL,PennController,18,_Trial_,End,1651002991132,ALT-IT ONLY,organized_alt,dactyl_clean_2b.jpg,NULL
1651003315,1a5ed2728eefe44a100abebf0c9a90bc,PennController,24,0,fillers,NULL,PennController,29,_Trial_,Start,1651002991135,f_rhyme,f11_f_rhyme,f11.png,NULL
1651003315,1a5ed2728eefe44a100abebf0c9a90bc,PennController,24,0,fillers,NULL,PennController,29,_Trial_,End,1651002999834,f_rhyme,f11_f_rhyme,f11.png,NULL
1651003315,1a5ed2728eefe44a100abebf0c9a90bc,PennController,30,0,fillers,NULL,PennController,35,_Trial_,Start,1651002999836,f_norhyme,f21_f_norhyme,f21.png,NULL
1651003315,1a5ed2728eefe44a100abebf0c9a90bc,PennController,30,0,fillers,NULL,Selector,answer-alt,Selection,IT,1651003010241,f_norhyme,f21_f_norhyme,f21.png,alt2;alt1;IT
1651003315,1a5ed2728eefe44a100abebf0c9a90bc,PennController,30,0,fillers,NULL,PennController,35,_Trial_,End,1651003011728,f_norhyme,f21_f_norhyme,f21.png,NULL
1651003315,1a5ed2728eefe44a100abebf0c9a90bc,PennController,2,0,experimental-trials,NULL,PennController,7,_Trial_,Start,1651003011730,IT ONLY,weightless_it,anapest_clean_1a.jpg,NULL
1651003315,1a5ed2728eefe44a100abebf0c9a90bc,PennController,2,0,experimental-trials,NULL,Selector,answer,Selection,No,1651003020333,IT ONLY,weightless_it,anapest_clean_1a.jpg,Yes;No
1651003315,1a5ed2728eefe44a100abebf0c9a90bc,PennController,2,0,experimental-trials,NULL,Selector,answer-alt,Selection,IT,1651003021496,IT ONLY,weightless_it,anapest_clean_1a.jpg,IT;alt1;alt2
1651003315,1a5ed2728eefe44a100abebf0c9a90bc,PennController,2,0,experimental-trials,NULL,PennController,7,_Trial_,End,1651003022967,IT ONLY,weightless_it,anapest_clean_1a.jpg,NULL
1651003315,1a5ed2728eefe44a100abebf0c9a90bc,PennController,33,0,fillers,NULL,PennController,38,_Trial_,Start,1651003022968,f_norhyme,f24_f_norhyme,f24.png,NULL
1651003315,1a5ed2728eefe44a100abebf0c9a90bc,PennController,33,0,fillers,NULL,Selector,answer-alt,Selection,IT,1651003032434,f_norhyme,f24_f_norhyme,f24.png,alt1;IT;alt2
1651003315,1a5ed2728eefe44a100abebf0c9a90bc,PennController,33,0,fillers,NULL,PennController,38,_Trial_,End,1651003033923,f_norhyme,f24_f_norhyme,f24.png,NULL
1651003315,1a5ed2728eefe44a100abebf0c9a90bc,PennController,28,0,fillers,NULL,PennController,33,_Trial_,Start,1651003033925,f_norhyme,f19_f_norhyme,f19.png,NULL
1651003315,1a5ed2728eefe44a100abebf0c9a90bc,PennController,28,0,fillers,NULL,Selector,answer-alt,Selection,IT,1651003043776,f_norhyme,f19_f_norhyme,f19.png,IT;alt2;alt1
1651003315,1a5ed2728eefe44a100abebf0c9a90bc,PennController,28,0,fillers,NULL,PennController,33,_Trial_,End,1651003045270,f_norhyme,f19_f_norhyme,f19.png,NULL
1651003315,1a5ed2728eefe44a100abebf0c9a90bc,PennController,5,0,experimental-trials,NULL,PennController,10,_Trial_,Start,1651003045272,ALT-IT ONLY,warm_alt,none_clean_2a.jpg,NULL
1651003315,1a5ed2728eefe44a100abebf0c9a90bc,PennController,5,0,experimental-trials,NULL,Selector,answer,Selection,No,1651003053925,ALT-IT ONLY,warm_alt,none_clean_2a.jpg,Yes;No
1651003315,1a5ed2728eefe44a100abebf0c9a90bc,PennController,5,0,experimental-trials,NULL,Selector,answer-alt,Selection,alt2,1651003057649,ALT-IT ONLY,warm_alt,none_clean_2a.jpg,alt2;IT;alt1
1651003315,1a5ed2728eefe44a100abebf0c9a90bc,PennController,5,0,experimental-trials,NULL,PennController,10,_Trial_,End,1651003058945,ALT-IT ONLY,warm_alt,none_clean_2a.jpg,NULL
1651003315,1a5ed2728eefe44a100abebf0c9a90bc,PennController,22,0,fillers,NULL,PennController,27,_Trial_,Start,1651003058946,f_rhyme,f9_f_rhyme,f9.png,NULL
1651003315,1a5ed2728eefe44a100abebf0c9a90bc,PennController,22,0,fillers,NULL,PennController,27,_Trial_,End,1651003067397,f_rhyme,f9_f_rhyme,f9.png,NULL
1651003315,1a5ed2728eefe44a100abebf0c9a90bc,PennController,17,0,fillers,NULL,PennController,22,_Trial_,Start,1651003067398,f_rhyme,f4_f_rhyme,f4.png,NULL
1651003315,1a5ed2728eefe44a100abebf0c9a90bc,PennController,17,0,fillers,NULL,PennController,22,_Trial_,End,1651003075477,f_rhyme,f4_f_rhyme,f4.png,NULL
1651003315,1a5ed2728eefe44a100abebf0c9a90bc,PennController,11,0,experimental-trials,NULL,PennController,16,_Trial_,Start,1651003075479,CONTROL,exam_control,dactyl_clean_1a.jpg,NULL
1651003315,1a5ed2728eefe44a100abebf0c9a90bc,PennController,11,0,experimental-trials,NULL,Selector,answer,Selection,No,1651003083522,CONTROL,exam_control,dactyl_clean_1a.jpg,Yes;No
1651003315,1a5ed2728eefe44a100abebf0c9a90bc,PennController,11,0,experimental-trials,NULL,Selector,answer-alt,Selection,alt2,1651003087194,CONTROL,exam_control,dactyl_clean_1a.jpg,alt2;alt1;IT
1651003315,1a5ed2728eefe44a100abebf0c9a90bc,PennController,11,0,experimental-trials,NULL,PennController,16,_Trial_,End,1651003088565,CONTROL,exam_control,dactyl_clean_1a.jpg,NULL
1651003315,1a5ed2728eefe44a100abebf0c9a90bc,PennController,20,0,fillers,NULL,PennController,25,_Trial_,Start,1651003088567,f_rhyme,f7_f_rhyme,f7.png,NULL
1651003315,1a5ed2728eefe44a100abebf0c9a90bc,PennController,20,0,fillers,NULL,Selector,answer-alt,Selection,IT,1651003103400,f_rhyme,f7_f_rhyme,f7.png,IT;alt2;alt1
1651003315,1a5ed2728eefe44a100abebf0c9a90bc,PennController,20,0,fillers,NULL,PennController,25,_Trial_,End,1651003104703,f_rhyme,f7_f_rhyme,f7.png,NULL
1651003315,1a5ed2728eefe44a100abebf0c9a90bc,PennController,26,0,fillers,NULL,PennController,31,_Trial_,Start,1651003104705,f_norhyme,f17_f_norhyme,f17.png,NULL
1651003315,1a5ed2728eefe44a100abebf0c9a90bc,PennController,26,0,fillers,NULL,Selector,answer-alt,Selection,IT,1651003115178,f_norhyme,f17_f_norhyme,f17.png,alt2;alt1;IT
1651003315,1a5ed2728eefe44a100abebf0c9a90bc,PennController,26,0,fillers,NULL,PennController,31,_Trial_,End,1651003116480,f_norhyme,f17_f_norhyme,f17.png,NULL
1651003315,1a5ed2728eefe44a100abebf0c9a90bc,PennController,10,0,experimental-trials,NULL,PennController,15,_Trial_,Start,1651003116484,IT ONLY,exhausted_it,trochaic_clean_3a.png,NULL
1651003315,1a5ed2728eefe44a100abebf0c9a90bc,PennController,10,0,experimental-trials,NULL,Selector,answer,Selection,No,1651003124723,IT ONLY,exhausted_it,trochaic_clean_3a.png,Yes;No
1651003315,1a5ed2728eefe44a100abebf0c9a90bc,PennController,10,0,experimental-trials,NULL,Selector,answer-alt,Selection,IT,1651003125748,IT ONLY,exhausted_it,trochaic_clean_3a.png,alt2;IT;alt1
1651003315,1a5ed2728eefe44a100abebf0c9a90bc,PennController,10,0,experimental-trials,NULL,PennController,15,_Trial_,End,1651003127021,IT ONLY,exhausted_it,trochaic_clean_3a.png,NULL
1651003315,1a5ed2728eefe44a100abebf0c9a90bc,PennController,16,0,fillers,NULL,PennController,21,_Trial_,Start,1651003127023,f_rhyme,f3_f_rhyme,f3.png,NULL
1651003315,1a5ed2728eefe44a100abebf0c9a90bc,PennController,16,0,fillers,NULL,PennController,21,_Trial_,End,1651003135228,f_rhyme,f3_f_rhyme,f3.png,NULL
1651003315,1a5ed2728eefe44a100abebf0c9a90bc,PennController,31,0,fillers,NULL,PennController,36,_Trial_,Start,1651003135229,f_norhyme,f22_f_norhyme,f22.png,NULL
1651003315,1a5ed2728eefe44a100abebf0c9a90bc,PennController,31,0,fillers,NULL,Selector,answer-alt,Selection,IT,1651003144863,f_norhyme,f22_f_norhyme,f22.png,alt1;IT;alt2
1651003315,1a5ed2728eefe44a100abebf0c9a90bc,PennController,31,0,fillers,NULL,PennController,36,_Trial_,End,1651003146335,f_norhyme,f22_f_norhyme,f22.png,NULL
1651003315,1a5ed2728eefe44a100abebf0c9a90bc,PennController,4,0,experimental-trials,NULL,PennController,9,_Trial_,Start,1651003146338,IT%2C ALT-IT,nostril_both,anapest_clean_3a.png,NULL
1651003315,1a5ed2728eefe44a100abebf0c9a90bc,PennController,4,0,experimental-trials,NULL,Selector,answer,Selection,No,1651003154295,IT%2C ALT-IT,nostril_both,anapest_clean_3a.png,Yes;No
1651003315,1a5ed2728eefe44a100abebf0c9a90bc,PennController,4,0,experimental-trials,NULL,Selector,answer-alt,Selection,IT,1651003155345,IT%2C ALT-IT,nostril_both,anapest_clean_3a.png,alt2;IT;alt1
1651003315,1a5ed2728eefe44a100abebf0c9a90bc,PennController,4,0,experimental-trials,NULL,PennController,9,_Trial_,End,1651003156807,IT%2C ALT-IT,nostril_both,anapest_clean_3a.png,NULL
1651003315,1a5ed2728eefe44a100abebf0c9a90bc,PennController,27,0,fillers,NULL,PennController,32,_Trial_,Start,1651003156810,f_norhyme,f18_f_norhyme,f18.png,NULL
1651003315,1a5ed2728eefe44a100abebf0c9a90bc,PennController,27,0,fillers,NULL,Selector,answer-alt,Selection,IT,1651003166466,f_norhyme,f18_f_norhyme,f18.png,alt1;IT;alt2
1651003315,1a5ed2728eefe44a100abebf0c9a90bc,PennController,27,0,fillers,NULL,PennController,32,_Trial_,End,1651003168425,f_norhyme,f18_f_norhyme,f18.png,NULL
1651003315,1a5ed2728eefe44a100abebf0c9a90bc,PennController,23,0,fillers,NULL,PennController,28,_Trial_,Start,1651003168427,f_rhyme,f10_f_rhyme,f10.png,NULL
1651003315,1a5ed2728eefe44a100abebf0c9a90bc,PennController,23,0,fillers,NULL,PennController,28,_Trial_,End,1651003176816,f_rhyme,f10_f_rhyme,f10.png,NULL
1651003315,1a5ed2728eefe44a100abebf0c9a90bc,PennController,8,0,experimental-trials,NULL,PennController,13,_Trial_,Start,1651003176817,IT%2C ALT-IT,weeds_both,iambic_clean_1a.jpg,NULL
1651003315,1a5ed2728eefe44a100abebf0c9a90bc,PennController,8,0,experimental-trials,NULL,Selector,answer,Selection,No,1651003184848,IT%2C ALT-IT,weeds_both,iambic_clean_1a.jpg,Yes;No
1651003315,1a5ed2728eefe44a100abebf0c9a90bc,PennController,8,0,experimental-trials,NULL,Selector,answer-alt,Selection,IT,1651003186466,IT%2C ALT-IT,weeds_both,iambic_clean_1a.jpg,alt2;alt1;IT
1651003315,1a5ed2728eefe44a100abebf0c9a90bc,PennController,8,0,experimental-trials,NULL,PennController,13,_Trial_,End,1651003187835,IT%2C ALT-IT,weeds_both,iambic_clean_1a.jpg,NULL
1651003315,1a5ed2728eefe44a100abebf0c9a90bc,PennController,18,0,fillers,NULL,PennController,23,_Trial_,Start,1651003187838,f_rhyme,f5_f_rhyme,f5.png,NULL
1651003315,1a5ed2728eefe44a100abebf0c9a90bc,PennController,18,0,fillers,NULL,Selector,answer-alt,Selection,alt1,1651003201499,f_rhyme,f5_f_rhyme,f5.png,alt2;IT;alt1
1651003315,1a5ed2728eefe44a100abebf0c9a90bc,PennController,18,0,fillers,NULL,PennController,23,_Trial_,End,1651003202816,f_rhyme,f5_f_rhyme,f5.png,NULL
1651003315,1a5ed2728eefe44a100abebf0c9a90bc,PennController,21,0,fillers,NULL,PennController,26,_Trial_,Start,1651003202821,f_rhyme,f8_f_rhyme,f8.png,NULL
1651003315,1a5ed2728eefe44a100abebf0c9a90bc,PennController,21,0,fillers,NULL,PennController,26,_Trial_,End,1651003211045,f_rhyme,f8_f_rhyme,f8.png,NULL
1651003315,1a5ed2728eefe44a100abebf0c9a90bc,PennController,6,0,experimental-trials,NULL,PennController,11,_Trial_,Start,1651003211046,IT ONLY,adhesive_it,iambic_clean_1b.jpg,NULL
1651003315,1a5ed2728eefe44a100abebf0c9a90bc,PennController,6,0,experimental-trials,NULL,Selector,answer,Selection,No,1651003219345,IT ONLY,adhesive_it,iambic_clean_1b.jpg,Yes;No
1651003315,1a5ed2728eefe44a100abebf0c9a90bc,PennController,6,0,experimental-trials,NULL,Selector,answer-alt,Selection,IT,1651003222578,IT ONLY,adhesive_it,iambic_clean_1b.jpg,IT;alt1;alt2
1651003315,1a5ed2728eefe44a100abebf0c9a90bc,PennController,6,0,experimental-trials,NULL,PennController,11,_Trial_,End,1651003224168,IT ONLY,adhesive_it,iambic_clean_1b.jpg,NULL
1651003315,1a5ed2728eefe44a100abebf0c9a90bc,PennController,29,0,fillers,NULL,PennController,34,_Trial_,Start,1651003224170,f_norhyme,f20_f_norhyme,f20.png,NULL
1651003315,1a5ed2728eefe44a100abebf0c9a90bc,PennController,29,0,fillers,NULL,Selector,answer-alt,Selection,alt2,1651003237168,f_norhyme,f20_f_norhyme,f20.png,alt2;IT;alt1
1651003315,1a5ed2728eefe44a100abebf0c9a90bc,PennController,29,0,fillers,NULL,PennController,34,_Trial_,End,1651003238667,f_norhyme,f20_f_norhyme,f20.png,NULL
1651003315,1a5ed2728eefe44a100abebf0c9a90bc,PennController,19,0,fillers,NULL,PennController,24,_Trial_,Start,1651003238669,f_rhyme,f6_f_rhyme,f6.png,NULL
1651003315,1a5ed2728eefe44a100abebf0c9a90bc,PennController,19,0,fillers,NULL,PennController,24,_Trial_,End,1651003246895,f_rhyme,f6_f_rhyme,f6.png,NULL
1651003315,1a5ed2728eefe44a100abebf0c9a90bc,PennController,12,0,experimental-trials,NULL,PennController,17,_Trial_,Start,1651003246896,IT%2C ALT-IT,mailed_both,iambic_clean_2b.jpg,NULL
1651003315,1a5ed2728eefe44a100abebf0c9a90bc,PennController,12,0,experimental-trials,NULL,Selector,answer,Selection,No,1651003255680,IT%2C ALT-IT,mailed_both,iambic_clean_2b.jpg,Yes;No
1651003315,1a5ed2728eefe44a100abebf0c9a90bc,PennController,12,0,experimental-trials,NULL,Selector,answer-alt,Selection,IT,1651003256419,IT%2C ALT-IT,mailed_both,iambic_clean_2b.jpg,alt1;IT;alt2
1651003315,1a5ed2728eefe44a100abebf0c9a90bc,PennController,12,0,experimental-trials,NULL,PennController,17,_Trial_,End,1651003257678,IT%2C ALT-IT,mailed_both,iambic_clean_2b.jpg,NULL
1651003315,1a5ed2728eefe44a100abebf0c9a90bc,PennController,36,0,fillers,NULL,PennController,41,_Trial_,Start,1651003257681,f_norhyme,f27_f_norhyme,f27.png,NULL
1651003315,1a5ed2728eefe44a100abebf0c9a90bc,PennController,36,0,fillers,NULL,Selector,answer-alt,Selection,IT,1651003268467,f_norhyme,f27_f_norhyme,f27.png,alt1;IT;alt2
1651003315,1a5ed2728eefe44a100abebf0c9a90bc,PennController,36,0,fillers,NULL,PennController,41,_Trial_,End,1651003269990,f_norhyme,f27_f_norhyme,f27.png,NULL
1651003315,1a5ed2728eefe44a100abebf0c9a90bc,PennController,14,0,fillers,NULL,PennController,19,_Trial_,Start,1651003269992,f_rhyme,f1_f_rhyme,f1.png,NULL
1651003315,1a5ed2728eefe44a100abebf0c9a90bc,PennController,14,0,fillers,NULL,Selector,answer-alt,Selection,IT,1651003288756,f_rhyme,f1_f_rhyme,f1.png,IT;alt1;alt2
1651003315,1a5ed2728eefe44a100abebf0c9a90bc,PennController,14,0,fillers,NULL,PennController,19,_Trial_,End,1651003290209,f_rhyme,f1_f_rhyme,f1.png,NULL
1651003315,1a5ed2728eefe44a100abebf0c9a90bc,PennController,3,0,experimental-trials,NULL,PennController,8,_Trial_,Start,1651003290211,CONTROL,alcohol_control,trochaic_clean_1b.jpg,NULL
1651003315,1a5ed2728eefe44a100abebf0c9a90bc,PennController,3,0,experimental-trials,NULL,Selector,answer,Selection,No,1651003298252,CONTROL,alcohol_control,trochaic_clean_1b.jpg,Yes;No
1651003315,1a5ed2728eefe44a100abebf0c9a90bc,PennController,3,0,experimental-trials,NULL,Selector,answer-alt,Selection,alt2,1651003302057,CONTROL,alcohol_control,trochaic_clean_1b.jpg,alt1;alt2;IT
1651003315,1a5ed2728eefe44a100abebf0c9a90bc,PennController,3,0,experimental-trials,NULL,PennController,8,_Trial_,End,1651003303394,CONTROL,alcohol_control,trochaic_clean_1b.jpg,NULL
1651003315,1a5ed2728eefe44a100abebf0c9a90bc,PennController,15,0,fillers,NULL,PennController,20,_Trial_,Start,1651003303396,f_rhyme,f2_f_rhyme,f2.png,NULL
